sounds,files,words,correct_answer,training,practices.thisRepN,practices.thisTrialN,practices.thisN,practices.thisIndex,trials.thisRepN,trials.thisTrialN,trials.thisN,trials.thisIndex,trials_2.thisRepN,trials_2.thisTrialN,trials_2.thisN,trials_2.thisIndex,welcome_animation.started,welcome_animation.stopped,key_resp.keys,key_resp.corr,key_resp.rt,key_resp.started,key_resp.stopped,instructions.started,instructions.stopped,ISI.started,ISI.stopped,text.started,text.stopped,text_2.started,text_2.stopped,start.started,start.stopped,breaks.started,breaks.stopped,end.started,end.stopped,participant,date,expName,psychopyVersion,frameRate,
stimuli/SC_S2_yu2-p_192ms.wav,SC_S2_yu2-p_192ms.wav,1-迂          2-鱼          3-雨          4-玉,2,Y,0,0,0,3,,,,,,,,,6.735497586000008,None,2,1,6.16755686800002,139.12737202299996,None,138.62409742299997,None,0.00022649999971235957,0.5002264999997124,140.623433192,None,None,None,,,,,,,13,2021_Dec_30_1307,Whispered,2021.2.3,488.51899750144685,
stimuli/DW_S1_ma3-p_305ms.wav,DW_S1_ma3-p_305ms.wav,1-妈          2-麻          3-马           4-骂,3,Y,0,1,1,1,,,,,,,,,,,3,1,2.9894559680000157,145.82545015199997,None,145.32053975999997,None,0.001719105799963927,0.5017191057999639,147.31961571199997,None,None,None,,,,,,,13,2021_Dec_30_1307,Whispered,2021.2.3,488.51899750144685,
stimuli/SC_S2_wu4-p_305ms.wav,SC_S2_wu4-p_305ms.wav,1-乌          2-无          3-五          4-物,4,Y,0,2,2,2,,,,,,,,,,,4,1,3.747095117000015,149.339806522,None,148.83480036999998,None,0.0015088442000319446,0.501508844200032,150.83289030599997,None,None,None,,,,,,,13,2021_Dec_30_1307,Whispered,2021.2.3,488.51899750144685,
stimuli/DW_S1_e1-p_192ms.wav,DW_S1_e1-p_192ms.wav,1-婀          2-鹅          3-恶（恶心）          4-饿,1,Y,0,3,3,0,,,,,,,,,,,1,1,3.5730101820000186,153.61788497599997,None,153.11268489499997,None,0.0009992179999471773,0.5009992179999472,155.114289632,None,None,None,,,,,,,13,2021_Dec_30_1307,Whispered,2021.2.3,488.51899750144685,
stimuli/DW_S2_yi3-w_192ms.wav,DW_S2_yi3-w_192ms.wav,1-衣          2-姨          3-椅          4-意,3,None,,,,,0,0,0,52,,,,,,,3,1,34.68024850500001,188.83071248,None,188.327062726,None,0.0008377523997182834,0.5008377523997183,190.32685086599997,None,None,None,157.198655572,None,,,,,13,2021_Dec_30_1307,Whispered,2021.2.3,488.51899750144685,
stimuli/DW_S1_ma2-w_192ms.wav,DW_S1_ma2-w_192ms.wav,1-妈          2-麻          3-马           4-骂,2,None,,,,,0,1,1,74,,,,,,,3,0,2.7192511439999976,224.03165957799996,None,223.52676309499998,None,0.0004501000000232125,0.5004501000000232,225.52909573799997,None,None,None,,,,,,,13,2021_Dec_30_1307,Whispered,2021.2.3,488.51899750144685,
stimuli/SC_S2_wu2-p_192ms.wav,SC_S2_wu2-p_192ms.wav,1-乌          2-无          3-五          4-物,2,None,,,,,0,2,2,48,,,,,,,2,1,2.7897434690000296,227.273179444,None,226.768558358,None,0.00016995039999301298,0.500169950399993,228.76759194099998,None,None,None,,,,,,,13,2021_Dec_30_1307,Whispered,2021.2.3,488.51899750144685,
stimuli/SC_S2_yi4-p_192ms.wav,SC_S2_yi4-p_192ms.wav,1-衣          2-姨          3-椅          4-意,4,None,,,,,0,3,3,86,,,,,,,4,1,2.9441548180000154,230.582751003,None,230.07807415999997,None,0.00036202799998363844,0.5003620279999836,232.07697656699997,None,None,None,,,,,,,13,2021_Dec_30_1307,Whispered,2021.2.3,488.51899750144685,
stimuli/SC_S2_e2-w_192ms.wav,SC_S2_e2-w_192ms.wav,1-婀          2-鹅          3-恶（恶心）          4-饿,2,None,,,,,0,4,4,138,,,,,,,2,1,7.646239100999992,234.048670221,None,233.54409361899997,None,0.0017596369999637318,0.5017596369999637,235.54165669100001,None,None,None,,,,,,,13,2021_Dec_30_1307,Whispered,2021.2.3,488.51899750144685,
stimuli/SC_S2_yi2-p_305ms.wav,SC_S2_yi2-p_305ms.wav,1-衣          2-姨          3-椅          4-意,2,None,,,,,0,5,5,123,,,,,,,2,1,2.5994616070000234,242.21545515499997,None,241.710957119,None,0.0006615019999571814,0.5006615019999572,243.712359349,None,None,None,,,,,,,13,2021_Dec_30_1307,Whispered,2021.2.3,488.51899750144685,
stimuli/DW_S2_wu1-p_192ms.wav,DW_S2_wu1-p_192ms.wav,1-乌          2-无          3-五          4-物,1,None,,,,,0,6,6,49,,,,,,,1,1,2.548095189000037,245.33883054299997,None,244.834321494,None,0.00014445339996882467,0.5001444533999688,246.83626868799996,None,None,None,,,,,,,13,2021_Dec_30_1307,Whispered,2021.2.3,488.51899750144685,
stimuli/DW_S1_yu1-p_305ms.wav,DW_S1_yu1-p_305ms.wav,1-迂          2-鱼          3-雨          4-玉,1,None,,,,,0,7,7,100,,,,,,,1,1,2.489541341000006,248.40538072599998,None,247.900310579,None,0.0015945459999784362,0.5015945459999784,249.898067824,None,None,None,,,,,,,13,2021_Dec_30_1307,Whispered,2021.2.3,488.51899750144685,
stimuli/DW_S2_ma4-w_192ms.wav,DW_S2_ma4-w_192ms.wav,1-妈          2-麻          3-马           4-骂,4,None,,,,,0,8,8,14,,,,,,,3,0,2.3588388889999123,251.41614595,None,250.911048284,None,0.0015173540000432695,0.5015173540000433,252.911946597,None,None,None,,,,,,,13,2021_Dec_30_1307,Whispered,2021.2.3,488.51899750144685,
stimuli/SC_S1_e3-w_192ms.wav,SC_S1_e3-w_192ms.wav,1-婀          2-鹅          3-恶（恶心）          4-饿,3,None,,,,,0,9,9,117,,,,,,,4,0,3.919271753000089,254.29563455599998,None,253.79076784099993,None,0.0007097039999734989,0.5007097039999735,255.79125393000004,None,None,None,,,,,,,13,2021_Dec_30_1307,Whispered,2021.2.3,488.51899750144685,
stimuli/DW_S1_ma3-w_305ms.wav,DW_S1_ma3-w_305ms.wav,1-妈          2-麻          3-马           4-骂,3,None,,,,,0,10,10,140,,,,,,,3,1,2.348130748000017,258.73880172500003,None,258.23341038499996,None,0.0009554063999530626,0.5009554063999531,260.23179761899996,None,None,None,,,,,,,13,2021_Dec_30_1307,Whispered,2021.2.3,488.51899750144685,
stimuli/SC_S2_yu3-p_305ms.wav,SC_S2_yu3-p_305ms.wav,1-迂          2-鱼          3-雨          4-玉,3,None,,,,,0,11,11,62,,,,,,,3,1,2.976314229999957,261.606623455,None,261.10229217899996,None,0.0018644710000899067,0.5018644710000899,263.10188097900004,None,None,None,,,,,,,13,2021_Dec_30_1307,Whispered,2021.2.3,488.51899750144685,
stimuli/DW_S1_yi3-w_305ms.wav,DW_S1_yi3-w_305ms.wav,1-衣          2-姨          3-椅          4-意,3,None,,,,,0,12,12,115,,,,,,,3,1,2.4306941510000115,265.1042267,None,264.59875214499993,None,0.0006204370000659765,0.500620437000066,266.60123317599994,None,None,None,,,,,,,13,2021_Dec_30_1307,Whispered,2021.2.3,488.51899750144685,
stimuli/DW_S2_yi3-p_305ms.wav,DW_S2_yi3-p_305ms.wav,1-衣          2-姨          3-椅          4-意,3,None,,,,,0,13,13,11,,,,,,,3,1,1.9245024159999957,268.050394846,None,267.545356236,None,0.0009390587999860145,0.500939058799986,269.54275199799997,None,None,None,,,,,,,13,2021_Dec_30_1307,Whispered,2021.2.3,488.51899750144685,
stimuli/DW_S1_wu1-w_192ms.wav,DW_S1_wu1-w_192ms.wav,1-乌          2-无          3-五          4-物,1,None,,,,,0,14,14,7,,,,,,,4,0,4.764803185999995,270.498112431,None,269.99345721500003,None,0.0007870533999039253,0.5007870533999039,271.99280204,None,None,None,,,,,,,13,2021_Dec_30_1307,Whispered,2021.2.3,488.51899750144685,
stimuli/DW_S1_e4-p_192ms.wav,DW_S1_e4-p_192ms.wav,1-婀          2-鹅          3-恶（恶心）          4-饿,4,None,,,,,0,15,15,126,,,,,,,4,1,3.0447701370000004,275.786184637,None,275.28097765300004,None,5.5848400052127545e-05,0.5000558484000521,277.28232974799994,None,None,None,,,,,,,13,2021_Dec_30_1307,Whispered,2021.2.3,488.51899750144685,
stimuli/DW_S2_yu1-p_305ms.wav,DW_S2_yu1-p_305ms.wav,1-迂          2-鱼          3-雨          4-玉,1,None,,,,,0,16,16,104,,,,,,,1,1,2.168867334999959,279.35005313700003,None,278.84532451300004,None,0.0014592429999993328,0.5014592429999993,280.844407781,None,None,None,,,,,,,13,2021_Dec_30_1307,Whispered,2021.2.3,488.51899750144685,
stimuli/SC_S2_wu4-w_192ms.wav,SC_S2_wu4-w_192ms.wav,1-乌          2-无          3-五          4-物,4,None,,,,,0,17,17,43,,,,,,,4,1,2.5077333699999826,282.04317512800003,None,281.53785829699996,None,0.0006383233999258664,0.5006383233999259,283.53698005499996,None,None,None,,,,,,,13,2021_Dec_30_1307,Whispered,2021.2.3,488.51899750144685,
stimuli/DW_S2_yu1-w_192ms.wav,DW_S2_yu1-w_192ms.wav,1-迂          2-鱼          3-雨          4-玉,1,None,,,,,0,18,18,92,,,,,,,4,0,3.757565332000013,285.07334816,None,284.56793383699994,None,0.0007219074000204273,0.5007219074000204,286.56974196499993,None,None,None,,,,,,,13,2021_Dec_30_1307,Whispered,2021.2.3,488.51899750144685,
stimuli/DW_S1_wu4-w_305ms.wav,DW_S1_wu4-w_305ms.wav,1-乌          2-无          3-五          4-物,4,None,,,,,0,19,19,152,,,,,,,2,0,2.2626877010000044,289.35223603099996,None,288.847405136,None,0.0006397073999551139,0.5006397073999551,290.847152068,None,None,None,,,,,,,13,2021_Dec_30_1307,Whispered,2021.2.3,488.51899750144685,
stimuli/SC_S1_yu1-p_192ms.wav,SC_S1_yu1-p_192ms.wav,1-迂          2-鱼          3-雨          4-玉,1,None,,,,,0,20,20,46,,,,,,,1,1,2.3302354060000425,292.132663878,None,291.62788434899994,None,0.00040855040003862086,0.5004085504000386,293.62660325900003,None,None,None,,,,,,,13,2021_Dec_30_1307,Whispered,2021.2.3,488.51899750144685,
stimuli/DW_S1_yi3-w_192ms.wav,DW_S1_yi3-w_192ms.wav,1-衣          2-姨          3-椅          4-意,3,None,,,,,0,21,21,55,,,,,,,3,1,2.474874906000082,294.988033773,None,294.482039087,None,0.0018425739999656798,0.5018425739999657,296.481393022,None,None,None,,,,,,,13,2021_Dec_30_1307,Whispered,2021.2.3,488.51899750144685,
stimuli/DW_S2_e2-p_305ms.wav,DW_S2_e2-p_305ms.wav,1-婀          2-鹅          3-恶（恶心）          4-饿,2,None,,,,,0,22,22,38,,,,,,,2,1,2.205322826999918,297.98560946299995,None,297.48030597799993,None,0.001764090599976953,0.501764090599977,299.48042307799994,None,None,None,,,,,,,13,2021_Dec_30_1307,Whispered,2021.2.3,488.51899750144685,
stimuli/DW_S2_yi4-p_192ms.wav,DW_S2_yi4-p_192ms.wav,1-衣          2-姨          3-椅          4-意,4,None,,,,,0,23,23,76,,,,,,,4,1,2.8645858800000497,300.71033260900003,None,300.205618039,None,0.00069044700012455,0.5006904470001245,302.20621027899995,None,None,None,,,,,,,13,2021_Dec_30_1307,Whispered,2021.2.3,488.51899750144685,
stimuli/SC_S1_yi3-p_305ms.wav,SC_S1_yi3-p_305ms.wav,1-衣          2-姨          3-椅          4-意,3,None,,,,,0,24,24,27,,,,,,,3,1,2.3719930519999934,304.090914449,None,303.585617278,None,0.0010869037998872955,0.5010869037998873,305.58785716599994,None,None,None,,,,,,,13,2021_Dec_30_1307,Whispered,2021.2.3,488.51899750144685,
stimuli/SC_S1_e2-p_305ms.wav,SC_S1_e2-p_305ms.wav,1-婀          2-鹅          3-恶（恶心）          4-饿,2,None,,,,,0,25,25,105,,,,,,,2,1,2.1905021340000985,306.984408336,None,306.47921008699996,None,0.0009721129999888944,0.5009721129999889,308.47833935200003,None,None,None,,,,,,,13,2021_Dec_30_1307,Whispered,2021.2.3,488.51899750144685,
stimuli/SC_S1_e2-p_192ms.wav,SC_S1_e2-p_192ms.wav,1-婀          2-鹅          3-恶（恶心）          4-饿,2,None,,,,,0,26,26,30,,,,,,,2,1,1.9149005399999623,309.692008033,None,309.186995442,None,0.0012469387999090031,0.501246938799909,311.18675329199993,None,None,None,,,,,,,13,2021_Dec_30_1307,Whispered,2021.2.3,488.51899750144685,
stimuli/DW_S1_wu4-p_305ms.wav,DW_S1_wu4-p_305ms.wav,1-乌          2-无          3-五          4-物,4,None,,,,,0,27,27,63,,,,,,,4,1,3.0126194690000148,312.13030104899997,None,311.62497349700004,None,0.0007151564000196231,0.5007151564000196,313.62814182599993,None,None,None,,,,,,,13,2021_Dec_30_1307,Whispered,2021.2.3,488.51899750144685,
stimuli/DW_S2_e2-w_192ms.wav,DW_S2_e2-w_192ms.wav,1-婀          2-鹅          3-恶（恶心）          4-饿,2,None,,,,,0,28,28,110,,,,,,,2,1,2.199401707999982,315.66351488600003,None,315.15882328099997,None,0.0009448240000438091,0.5009448240000438,317.159391841,None,None,None,,,,,,,13,2021_Dec_30_1307,Whispered,2021.2.3,488.51899750144685,
stimuli/SC_S1_yu3-p_192ms.wav,SC_S1_yu3-p_192ms.wav,1-迂          2-鱼          3-雨          4-玉,3,None,,,,,0,29,29,19,,,,,,,3,1,2.032403122000005,318.38251368499994,None,317.877921745,None,0.001891741000008551,0.5018917410000086,319.878421407,None,None,None,,,,,,,13,2021_Dec_30_1307,Whispered,2021.2.3,488.51899750144685,
stimuli/SC_S1_e1-w_305ms.wav,SC_S1_e1-w_305ms.wav,1-婀          2-鹅          3-恶（恶心）          4-饿,1,None,,,,,0,30,30,96,,,,,,,2,0,1.957099124000024,320.937806176,None,320.43405439000003,None,0.0016903529999581224,0.5016903529999581,322.432330881,None,None,None,,,,,,,13,2021_Dec_30_1307,Whispered,2021.2.3,488.51899750144685,
stimuli/SC_S2_yu2-w_305ms.wav,SC_S2_yu2-w_305ms.wav,1-迂          2-鱼          3-雨          4-玉,2,None,,,,,0,31,31,37,,,,,,,3,0,3.6845787879999534,323.41831282,None,322.91314708999994,None,0.0008687664000035511,0.5008687664000036,324.91430209500004,None,None,None,,,,,,,13,2021_Dec_30_1307,Whispered,2021.2.3,488.51899750144685,
stimuli/SC_S1_e2-w_192ms.wav,SC_S1_e2-w_192ms.wav,1-婀          2-鹅          3-恶（恶心）          4-饿,2,None,,,,,0,32,32,85,,,,,,,3,0,3.0622365709999713,327.62467383599994,None,327.11930287999996,None,0.0003694830000995353,0.5003694830000995,329.11996602199997,None,None,None,,,,,,,13,2021_Dec_30_1307,Whispered,2021.2.3,488.51899750144685,
stimuli/DW_S1_ma3-w_192ms.wav,DW_S1_ma3-w_192ms.wav,1-妈          2-麻          3-马           4-骂,3,None,,,,,0,33,33,32,,,,,,,3,1,2.36604692100002,331.208881217,None,330.70392296499995,None,0.000653693400067823,0.5006536934000678,332.702672582,None,None,None,,,,,,,13,2021_Dec_30_1307,Whispered,2021.2.3,488.51899750144685,
stimuli/DW_S2_yu3-w_192ms.wav,DW_S2_yu3-w_192ms.wav,1-迂          2-鱼          3-雨          4-玉,3,None,,,,,0,34,34,106,,,,,,,3,1,3.4107294679999995,334.09218494000004,None,333.58720612699994,None,0.0007228133998751218,0.5007228133998751,335.58845727899995,None,None,None,,,,,,,13,2021_Dec_30_1307,Whispered,2021.2.3,488.51899750144685,
stimuli/SC_S1_e3-w_305ms.wav,SC_S1_e3-w_305ms.wav,1-婀          2-鹅          3-恶（恶心）          4-饿,3,None,,,,,0,35,35,148,,,,,,,4,0,3.0772176110000373,338.02568879499995,None,337.521634113,None,0.00019366940000509203,0.5001936694000051,339.521744268,None,None,None,,,,,,,13,2021_Dec_30_1307,Whispered,2021.2.3,488.51899750144685,
stimuli/SC_S1_ma4-w_192ms.wav,SC_S1_ma4-w_192ms.wav,1-妈          2-麻          3-马           4-骂,4,None,,,,,0,36,36,89,,,,,,,3,0,2.7271141659999785,341.62385666,None,341.11826918199995,None,0.0018187410000791715,0.5018187410000792,343.11613814099996,None,None,None,,,,,,,13,2021_Dec_30_1307,Whispered,2021.2.3,488.51899750144685,
stimuli/DW_S1_yi2-w_192ms.wav,DW_S1_yi2-w_192ms.wav,1-衣          2-姨          3-椅          4-意,2,None,,,,,0,37,37,142,,,,,,,3,0,1.9921778369999856,344.87074383799995,None,344.365723861,None,0.0013808039999503308,0.5013808039999503,346.36571585499996,None,None,None,,,,,,,13,2021_Dec_30_1307,Whispered,2021.2.3,488.51899750144685,
stimuli/DW_S2_wu4-w_305ms.wav,DW_S2_wu4-w_305ms.wav,1-乌          2-无          3-五          4-物,4,None,,,,,0,38,38,79,,,,,,,3,0,3.0865343149999944,347.384379102,None,346.880133205,None,0.000589363399967624,0.5005893633999676,348.88187391299994,None,None,None,,,,,,,13,2021_Dec_30_1307,Whispered,2021.2.3,488.51899750144685,
stimuli/SC_S2_yi1-p_192ms.wav,SC_S2_yi1-p_192ms.wav,1-衣          2-姨          3-椅          4-意,1,None,,,,,0,39,39,103,,,,,,,1,1,2.1078885460000265,350.99502529099993,None,350.490018579,None,0.001419967999936489,0.5014199679999365,352.489650764,None,None,None,,,,,,,13,2021_Dec_30_1307,Whispered,2021.2.3,488.51899750144685,
stimuli/DW_S2_wu3-p_305ms.wav,DW_S2_wu3-p_305ms.wav,1-乌          2-无          3-五          4-物,3,None,,,,,0,40,40,108,,,,,,,3,1,2.6830249319999666,353.62788706699996,None,353.123323989,None,0.0007247229999620686,0.5007247229999621,355.122913055,None,None,None,,,,,,,13,2021_Dec_30_1307,Whispered,2021.2.3,488.51899750144685,
stimuli/SC_S1_yu2-w_192ms.wav,SC_S1_yu2-w_192ms.wav,1-迂          2-鱼          3-雨          4-玉,2,None,,,,,0,41,41,5,,,,,,,3,0,2.5346777199999906,356.832257959,None,356.327912663,None,0.0004681284000298547,0.5004681284000299,358.326617802,None,None,None,,,,,,,13,2021_Dec_30_1307,Whispered,2021.2.3,488.51899750144685,
stimuli/SC_S1_yu4-w_305ms.wav,SC_S1_yu4-w_305ms.wav,1-迂          2-鱼          3-雨          4-玉,4,None,,,,,0,42,42,36,,,,,,,2,0,2.780219853999938,359.88267667799994,None,359.377573211,None,0.0010891378000223995,0.5010891378000224,361.37846626399994,None,None,None,,,,,,,13,2021_Dec_30_1307,Whispered,2021.2.3,488.51899750144685,
stimuli/DW_S2_yi1-p_305ms.wav,DW_S2_yi1-p_305ms.wav,1-衣          2-姨          3-椅          4-意,1,None,,,,,0,43,43,112,,,,,,,1,1,2.268946751000044,363.185979007,None,362.682157413,None,0.0010124769999038108,0.5010124769999038,364.68546158899994,None,None,None,,,,,,,13,2021_Dec_30_1307,Whispered,2021.2.3,488.51899750144685,
stimuli/DW_S1_ma1-p_192ms.wav,DW_S1_ma1-p_192ms.wav,1-妈          2-麻          3-马           4-骂,1,None,,,,,0,44,44,80,,,,,,,1,1,2.1404528990000244,365.9784561,None,365.47410288899994,None,0.00019370639995486272,0.5001937063999549,367.47344602,None,None,None,,,,,,,13,2021_Dec_30_1307,Whispered,2021.2.3,488.51899750144685,
stimuli/SC_S1_yi3-w_192ms.wav,SC_S1_yi3-w_192ms.wav,1-衣          2-姨          3-椅          4-意,3,None,,,,,0,45,45,146,,,,,,,3,1,2.5603901939999787,368.63852230299995,None,368.13320141400004,None,0.0010992490000489852,0.501099249000049,370.135421943,None,None,None,,,,,,,13,2021_Dec_30_1307,Whispered,2021.2.3,488.51899750144685,
stimuli/DW_S1_e2-w_192ms.wav,DW_S1_e2-w_192ms.wav,1-婀          2-鹅          3-恶（恶心）          4-饿,2,None,,,,,0,46,46,56,,,,,,,2,1,2.9001938609999343,371.722743345,None,371.21801742599996,None,0.0014518340000222452,0.5014518340000222,373.216122335,None,None,None,,,,,,,13,2021_Dec_30_1307,Whispered,2021.2.3,488.51899750144685,
stimuli/SC_S1_wu2-p_305ms.wav,SC_S1_wu2-p_305ms.wav,1-乌          2-无          3-五          4-物,2,None,,,,,0,47,47,129,,,,,,,3,0,2.396091311999953,375.14681516199994,None,374.64094067999997,None,0.0007462354000153937,0.5007462354000154,376.640790156,None,None,None,,,,,,,13,2021_Dec_30_1307,Whispered,2021.2.3,488.51899750144685,
stimuli/SC_S1_e4-w_192ms.wav,SC_S1_e4-w_192ms.wav,1-婀          2-鹅          3-恶（恶心）          4-饿,4,None,,,,,0,48,48,102,,,,,,,4,1,2.075645098999985,378.067267046,None,377.56220802199994,None,0.0017345949999025834,0.5017345949999026,379.563031678,None,None,None,,,,,,,13,2021_Dec_30_1307,Whispered,2021.2.3,488.51899750144685,
stimuli/SC_S1_yi4-w_305ms.wav,SC_S1_yi4-w_305ms.wav,1-衣          2-姨          3-椅          4-意,4,None,,,,,0,49,49,149,,,,,,,1,0,2.5343706570000677,380.664537529,None,380.159282682,None,0.0008233359999394452,0.5008233359999394,382.16053811300003,None,None,None,,,,,,,13,2021_Dec_30_1307,Whispered,2021.2.3,488.51899750144685,
stimuli/DW_S1_wu1-p_192ms.wav,DW_S1_wu1-p_192ms.wav,1-乌          2-无          3-五          4-物,1,None,,,,,0,50,50,6,,,,,,,1,1,1.9577616740000394,383.72114740200004,None,383.216518458,None,0.000138724400017054,0.500138724400017,385.217523832,None,None,None,,,,,,,13,2021_Dec_30_1307,Whispered,2021.2.3,488.51899750144685,
stimuli/SC_S2_e3-p_192ms.wav,SC_S2_e3-p_192ms.wav,1-婀          2-鹅          3-恶（恶心）          4-饿,3,None,,,,,0,51,51,153,,,,,,,3,1,2.228688938000005,386.20221517100003,None,385.69678241400004,None,0.001608345000022382,0.5016083450000224,387.69612991500003,None,None,None,,,,,,,13,2021_Dec_30_1307,Whispered,2021.2.3,488.51899750144685,
stimuli/DW_S2_yu2-w_305ms.wav,DW_S2_yu2-w_305ms.wav,1-迂          2-鱼          3-雨          4-玉,2,None,,,,,0,52,52,65,,,,,,,2,1,2.173193721999951,388.953726148,None,388.44875471,None,0.0005099634000771402,0.5005099634000771,390.450443197,None,None,None,,,,,,,13,2021_Dec_30_1307,Whispered,2021.2.3,488.51899750144685,
stimuli/SC_S1_yi2-p_305ms.wav,SC_S1_yi2-p_305ms.wav,1-衣          2-姨          3-椅          4-意,2,None,,,,,0,53,53,35,,,,,,,2,1,1.750380941000003,391.64851079999994,None,391.143585335,None,0.00033741799995823385,0.5003374179999582,393.142815725,None,None,None,,,,,,,13,2021_Dec_30_1307,Whispered,2021.2.3,488.51899750144685,
stimuli/DW_S1_wu3-p_305ms.wav,DW_S1_wu3-p_305ms.wav,1-乌          2-无          3-五          4-物,3,None,,,,,0,54,54,151,,,,,,,3,1,2.6151033070000267,393.91980214800003,None,393.414915832,None,0.0007192033999672276,0.5007192033999672,395.415214212,None,None,None,,,,,,,13,2021_Dec_30_1307,Whispered,2021.2.3,488.51899750144685,
stimuli/SC_S1_ma1-w_305ms.wav,SC_S1_ma1-w_305ms.wav,1-妈          2-麻          3-马           4-骂,1,None,,,,,0,55,55,39,,,,,,,3,0,2.1664570420000473,397.05645973699995,None,396.55161002,None,0.0010064024000939753,0.501006402400094,398.55404296099994,None,None,None,,,,,,,13,2021_Dec_30_1307,Whispered,2021.2.3,488.51899750144685,
stimuli/SC_S2_ma1-w_192ms.wav,SC_S2_ma1-w_192ms.wav,1-妈          2-麻          3-马           4-骂,1,None,,,,,0,56,56,8,,,,,,,3,0,2.097020624000038,399.74189526199996,None,399.23726802199997,None,0.00019140020003760583,0.5001914002000376,401.23812764,None,None,None,,,,,,,13,2021_Dec_30_1307,Whispered,2021.2.3,488.51899750144685,
stimuli/SC_S1_yi4-w_192ms.wav,SC_S1_yi4-w_192ms.wav,1-衣          2-姨          3-椅          4-意,4,None,,,,,0,57,57,97,,,,,,,1,0,2.10254877400007,402.36036101699995,None,401.85551528400003,None,0.0009184019999111115,0.5009184019999111,403.85692364499994,None,None,None,,,,,,,13,2021_Dec_30_1307,Whispered,2021.2.3,488.51899750144685,
stimuli/DW_S2_ma1-w_305ms.wav,DW_S2_ma1-w_305ms.wav,1-妈          2-麻          3-马           4-骂,1,None,,,,,0,58,58,61,,,,,,,3,0,1.8062350989999914,404.98467624599994,None,404.47914709199995,None,0.0006773133999331549,0.5006773133999332,406.482181139,None,None,None,,,,,,,13,2021_Dec_30_1307,Whispered,2021.2.3,488.51899750144685,
stimuli/SC_S2_e4-w_305ms.wav,SC_S2_e4-w_305ms.wav,1-婀          2-鹅          3-恶（恶心）          4-饿,4,None,,,,,0,59,59,45,,,,,,,4,1,2.8701874260000295,407.31273326099995,None,406.806996863,None,0.0009088809999866498,0.5009088809999866,408.81353199,None,None,None,,,,,,,13,2021_Dec_30_1307,Whispered,2021.2.3,488.51899750144685,
stimuli/SC_S1_ma1-w_192ms.wav,SC_S1_ma1-w_192ms.wav,1-妈          2-麻          3-马           4-骂,1,None,,,,,0,60,60,4,,,,,,,3,0,2.1138164400000505,410.701092722,None,410.19573505799997,None,0.0007919703999732519,0.5007919703999733,412.196446423,None,None,None,,,,,,,13,2021_Dec_30_1307,Whispered,2021.2.3,488.51899750144685,
stimuli/SC_S2_wu3-w_305ms.wav,SC_S2_wu3-w_305ms.wav,1-乌          2-无          3-五          4-物,3,None,,,,,0,61,61,1,,,,,,,3,1,2.319911341999955,413.33505973800004,None,412.830139678,None,0.001281929000015225,0.5012819290000152,414.83083190900004,None,None,None,,,,,,,13,2021_Dec_30_1307,Whispered,2021.2.3,488.51899750144685,
stimuli/SC_S2_e3-w_192ms.wav,SC_S2_e3-w_192ms.wav,1-婀          2-鹅          3-恶（恶心）          4-饿,3,None,,,,,0,62,62,77,,,,,,,4,0,2.415571872999976,416.17535800999997,None,415.670562101,None,0.0007918410000229414,0.5007918410000229,417.670516226,None,None,None,,,,,,,13,2021_Dec_30_1307,Whispered,2021.2.3,488.51899750144685,
stimuli/SC_S2_yu1-w_192ms.wav,SC_S2_yu1-w_192ms.wav,1-迂          2-鱼          3-雨          4-玉,1,None,,,,,0,63,63,139,,,,,,,1,1,2.005089873999964,419.11383382299994,None,418.60950711199996,None,0.0007210293998696216,0.5007210293998696,420.61181467999995,None,None,None,,,,,,,13,2021_Dec_30_1307,Whispered,2021.2.3,488.51899750144685,
stimuli/SC_S1_wu1-p_305ms.wav,SC_S1_wu1-p_305ms.wav,1-乌          2-无          3-五          4-物,1,None,,,,,0,64,64,66,,,,,,,1,1,1.8506872500000782,421.63621870299994,None,421.131253494,None,0.0007671713999570784,0.5007671713999571,423.13187400699996,None,None,None,,,,,,,13,2021_Dec_30_1307,Whispered,2021.2.3,488.51899750144685,
stimuli/SC_S1_wu1-p_192ms.wav,SC_S1_wu1-p_192ms.wav,1-乌          2-无          3-五          4-物,1,None,,,,,0,65,65,114,,,,,,,1,1,1.1702210570000489,424.004694858,None,423.49927378300004,None,0.00033177819989305135,0.500331778199893,None,None,None,None,,,,,,,13,2021_Dec_30_1307,Whispered,2021.2.3,488.51899750144685,
stimuli/SC_S1_yu1-w_192ms.wav,SC_S1_yu1-w_192ms.wav,1-迂          2-鱼          3-雨          4-玉,1,None,,,,,0,66,66,93,,,,,,,2,0,2.0256711309999673,425.693244186,None,425.18779959899996,None,0.0016122429999541055,0.5016122429999541,427.186782172,None,None,None,,,,,,,13,2021_Dec_30_1307,Whispered,2021.2.3,488.51899750144685,
stimuli/SC_S1_ma1-p_192ms.wav,SC_S1_ma1-p_192ms.wav,1-妈          2-麻          3-马           4-骂,1,None,,,,,0,67,67,91,,,,,,,1,1,1.517831016999935,428.24110651599995,None,427.73610449299997,None,0.0012592883999786864,0.5012592883999787,429.734206051,None,None,None,,,,,,,13,2021_Dec_30_1307,Whispered,2021.2.3,488.51899750144685,
stimuli/DW_S1_yu3-p_305ms.wav,DW_S1_yu3-p_305ms.wav,1-迂          2-鱼          3-雨          4-玉,3,None,,,,,0,68,68,0,,,,,,,2,0,1.9781753920000256,430.27673438499994,None,429.771740122,None,0.0007461004000788307,0.5007461004000788,431.773953516,None,None,None,,,,,,,13,2021_Dec_30_1307,Whispered,2021.2.3,488.51899750144685,
stimuli/SC_S2_wu4-w_305ms.wav,SC_S2_wu4-w_305ms.wav,1-乌          2-无          3-五          4-物,4,None,,,,,0,69,69,124,,,,,,,4,1,2.613528955000106,432.77737956399994,None,432.272196505,None,0.0007513994000873936,0.5007513994000874,434.273017845,None,None,None,,,,,,,13,2021_Dec_30_1307,Whispered,2021.2.3,488.51899750144685,
stimuli/DW_S2_yi2-p_192ms.wav,DW_S2_yi2-p_192ms.wav,1-衣          2-姨          3-椅          4-意,2,None,,,,,0,70,70,72,,,,,,,3,0,2.5550453640000796,435.915860135,None,435.41193359299996,None,0.0009480019999728029,0.5009480019999728,437.41016954099996,None,None,None,,,,,,,13,2021_Dec_30_1307,Whispered,2021.2.3,488.51899750144685,
stimuli/DW_S1_yi2-w_305ms.wav,DW_S1_yi2-w_305ms.wav,1-衣          2-姨          3-椅          4-意,2,None,,,,,0,71,71,125,,,,,,,2,1,2.461957785999971,438.98496617800004,None,438.480394704,None,0.00012392919995818374,0.5001239291999582,440.479336675,None,None,None,,,,,,,13,2021_Dec_30_1307,Whispered,2021.2.3,488.51899750144685,
stimuli/SC_S2_e1-w_305ms.wav,SC_S2_e1-w_305ms.wav,1-婀          2-鹅          3-恶（恶心）          4-饿,1,None,,,,,0,72,72,60,,,,,,,4,0,2.889996913999994,441.964933211,None,441.460092841,None,0.0017489539999360204,0.501748953999936,443.458104362,None,None,None,,,,,,,13,2021_Dec_30_1307,Whispered,2021.2.3,488.51899750144685,
stimuli/DW_S2_yi1-p_192ms.wav,DW_S2_yi1-p_192ms.wav,1-衣          2-姨          3-椅          4-意,1,None,,,,,0,73,73,135,,,,,,,1,1,2.4880160159999605,445.37497107900003,None,444.869944863,None,0.00027083300005870115,0.5002708330000587,446.87152084,None,None,None,,,,,,,13,2021_Dec_30_1307,Whispered,2021.2.3,488.51899750144685,
stimuli/SC_S2_e4-p_192ms.wav,SC_S2_e4-p_192ms.wav,1-婀          2-鹅          3-恶（恶心）          4-饿,4,None,,,,,0,74,74,158,,,,,,,4,1,2.456305878999956,448.38260403999993,None,447.877491265,None,0.0006917690000136645,0.5006917690000137,449.87989749099995,None,None,None,,,,,,,13,2021_Dec_30_1307,Whispered,2021.2.3,488.51899750144685,
stimuli/SC_S2_wu4-p_305ms.wav,SC_S2_wu4-p_305ms.wav,1-乌          2-无          3-五          4-物,4,Y,,,,,0,75,75,73,,,,,,,4,1,2.6772654080000393,451.361644241,None,450.85621853399994,None,0.0005215733999648364,0.5005215733999648,452.85790242099995,None,None,None,,,,,,,13,2021_Dec_30_1307,Whispered,2021.2.3,488.51899750144685,
stimuli/DW_S2_e3-w_305ms.wav,DW_S2_e3-w_305ms.wav,1-婀          2-鹅          3-恶（恶心）          4-饿,3,None,,,,,0,76,76,157,,,,,,,2,0,2.1872778400000925,454.563646877,None,454.05917532800004,None,0.0018515049999905386,0.5018515049999905,456.058261601,None,None,None,,,,,,,13,2021_Dec_30_1307,Whispered,2021.2.3,488.51899750144685,
stimuli/SC_S2_ma2-w_305ms.wav,SC_S2_ma2-w_305ms.wav,1-妈          2-麻          3-马           4-骂,2,None,,,,,0,77,77,159,,,,,,,3,0,7.793360648999965,457.26955894599996,None,456.76427564100004,None,9.657140003582754e-05,0.5000965714000358,458.76480817000004,None,None,None,,,,,,,13,2021_Dec_30_1307,Whispered,2021.2.3,488.51899750144685,
stimuli/SC_S2_e1-p_192ms.wav,SC_S2_e1-p_192ms.wav,1-婀          2-鹅          3-恶（恶心）          4-饿,1,None,,,,,0,78,78,127,,,,,,,1,1,2.541713020999964,465.58518242499997,None,465.08015664899995,None,0.0005457139999407445,0.5005457139999407,467.079626826,None,None,None,,,,,,,13,2021_Dec_30_1307,Whispered,2021.2.3,488.51899750144685,
stimuli/DW_S2_wu3-p_192ms.wav,DW_S2_wu3-p_192ms.wav,1-乌          2-无          3-五          4-物,3,None,,,,,0,79,79,88,,,,,,,3,1,2.0145775390000153,468.648336867,None,468.143034843,None,0.0005816123999693446,0.5005816123999693,470.14392789600004,None,None,None,,,,,,,13,2021_Dec_30_1307,Whispered,2021.2.3,488.51899750144685,
stimuli/DW_S2_e1-w_305ms.wav,DW_S2_e1-w_305ms.wav,1-婀          2-鹅          3-恶（恶心）          4-饿,1,None,,,,,0,80,80,75,,,,,,,3,0,39.96416496000006,471.18676078499993,None,470.681415301,None,0.00180777700006729,0.5018077770000673,472.681232197,None,None,None,,,,,,,13,2021_Dec_30_1307,Whispered,2021.2.3,488.51899750144685,
stimuli/SC_S1_e4-p_305ms.wav,SC_S1_e4-p_305ms.wav,1-婀          2-鹅          3-恶（恶心）          4-饿,4,None,,,,,0,81,81,16,,,,,,,3,0,2.1656086510000705,511.66532479399996,None,511.16065768199996,None,7.829019989458175e-05,0.5000782901998946,513.159326866,None,None,None,,,,,,,13,2021_Dec_30_1307,Whispered,2021.2.3,488.51899750144685,
stimuli/SC_S1_ma3-w_192ms.wav,SC_S1_ma3-w_192ms.wav,1-妈          2-麻          3-马           4-骂,3,None,,,,,0,82,82,155,,,,,,,3,1,2.2227872119999574,514.352135403,None,513.8478975859999,None,0.0007180113999538662,0.5007180113999539,515.848180436,None,None,None,,,,,,,13,2021_Dec_30_1307,Whispered,2021.2.3,488.51899750144685,
stimuli/SC_S1_ma4-w_305ms.wav,SC_S1_ma4-w_305ms.wav,1-妈          2-麻          3-马           4-骂,4,None,,,,,0,83,83,156,,,,,,,3,0,1.613564465999957,517.089344635,None,516.5841035029999,None,0.00029368519994932285,0.5002936851999493,518.585886713,None,None,None,,,,,,,13,2021_Dec_30_1307,Whispered,2021.2.3,488.51899750144685,
stimuli/SC_S1_ma2-p_305ms.wav,SC_S1_ma2-p_305ms.wav,1-妈          2-麻          3-马           4-骂,2,None,,,,,0,84,84,17,,,,,,,2,1,2.1863072019999663,519.220614861,None,518.715395919,None,9.119020000980527e-05,0.5000911902000098,520.717315705,None,None,None,,,,,,,13,2021_Dec_30_1307,Whispered,2021.2.3,488.51899750144685,
stimuli/SC_S2_ma4-w_305ms.wav,SC_S2_ma4-w_305ms.wav,1-妈          2-麻          3-马           4-骂,4,None,,,,,0,85,85,29,,,,,,,3,0,2.8579884529999617,521.924927482,None,521.419271708,None,0.0010134377998838318,0.5010134377998838,523.41980614,None,None,None,,,,,,,13,2021_Dec_30_1307,Whispered,2021.2.3,488.51899750144685,
stimuli/SC_S1_wu2-w_192ms.wav,SC_S1_wu2-w_192ms.wav,1-乌          2-无          3-五          4-物,2,None,,,,,0,86,86,111,,,,,,,2,1,2.1642831359999946,525.30662832,None,524.801673911,None,0.0005415684000809051,0.5005415684000809,526.80148948,None,None,None,,,,,,,13,2021_Dec_30_1307,Whispered,2021.2.3,488.51899750144685,
stimuli/DW_S2_yu3-p_305ms.wav,DW_S2_yu3-p_305ms.wav,1-迂          2-鱼          3-雨          4-玉,3,None,,,,,0,87,87,67,,,,,,,3,1,2.2680204299999787,527.994907665,None,527.490089862,None,0.0003929253999785942,0.5003929253999786,529.489587444,None,None,None,,,,,,,13,2021_Dec_30_1307,Whispered,2021.2.3,488.51899750144685,
stimuli/DW_S2_yi2-p_305ms.wav,DW_S2_yi2-p_305ms.wav,1-衣          2-姨          3-椅          4-意,2,None,,,,,0,88,88,9,,,,,,,3,0,2.048437748999959,530.782481937,None,530.277268493,None,0.0009394620000193754,0.5009394620000194,532.277767677,None,None,None,,,,,,,13,2021_Dec_30_1307,Whispered,2021.2.3,488.51899750144685,
stimuli/DW_S2_yi2-w_305ms.wav,DW_S2_yi2-w_305ms.wav,1-衣          2-姨          3-椅          4-意,2,None,,,,,0,89,89,15,,,,,,,2,1,2.00369944199997,533.347241877,None,532.842429424,None,0.0011581898000940782,0.5011581898000941,534.8417548049999,None,None,None,,,,,,,13,2021_Dec_30_1307,Whispered,2021.2.3,488.51899750144685,
stimuli/SC_S1_wu2-w_305ms.wav,SC_S1_wu2-w_305ms.wav,1-乌          2-无          3-五          4-物,2,None,,,,,0,90,90,90,,,,,,,4,0,2.3529637859999184,535.869970426,None,535.365448257,None,0.00175932600006945,0.5017593260000694,537.364278248,None,None,None,,,,,,,13,2021_Dec_30_1307,Whispered,2021.2.3,488.51899750144685,
stimuli/SC_S1_ma2-w_192ms.wav,SC_S1_ma2-w_192ms.wav,1-妈          2-麻          3-马           4-骂,2,None,,,,,0,91,91,64,,,,,,,3,0,3.584777997999936,538.742131737,None,538.236693295,None,0.0016491000000087297,0.5016491000000087,540.235444175,None,None,None,,,,,,,13,2021_Dec_30_1307,Whispered,2021.2.3,488.51899750144685,
stimuli/SC_S1_yu3-w_305ms.wav,SC_S1_yu3-w_305ms.wav,1-迂          2-鱼          3-雨          4-玉,3,None,,,,,0,92,92,81,,,,,,,3,1,3.6629033059999756,542.848020941,None,542.343164545,None,0.0009332893998816871,0.5009332893998817,544.344459551,None,None,None,,,,,,,13,2021_Dec_30_1307,Whispered,2021.2.3,488.51899750144685,
stimuli/DW_S2_e4-p_192ms.wav,DW_S2_e4-p_192ms.wav,1-婀          2-鹅          3-恶（恶心）          4-饿,4,None,,,,,0,93,93,84,,,,,,,4,1,1.8352779820000933,547.035633982,None,546.530438595,None,9.794540005714225e-05,0.5000979454000571,548.530325777,None,None,None,,,,,,,13,2021_Dec_30_1307,Whispered,2021.2.3,488.51899750144685,
stimuli/DW_S1_wu3-w_305ms.wav,DW_S1_wu3-w_305ms.wav,1-乌          2-无          3-五          4-物,3,None,,,,,0,94,94,119,,,,,,,2,0,1.517385433999948,549.393527282,None,548.888381006,None,0.0004716933999588946,0.5004716933999589,550.889280536,None,None,None,,,,,,,13,2021_Dec_30_1307,Whispered,2021.2.3,488.51899750144685,
stimuli/DW_S2_ma2-p_192ms.wav,DW_S2_ma2-p_192ms.wav,1-妈          2-麻          3-马           4-骂,2,None,,,,,0,95,95,121,,,,,,,3,0,3.142405849000056,551.432500489,None,550.92724751,None,0.0011474699999780569,0.5011474699999781,552.927969706,None,None,None,,,,,,,13,2021_Dec_30_1307,Whispered,2021.2.3,488.51899750144685,
stimuli/SC_S2_e4-w_192ms.wav,SC_S2_e4-w_192ms.wav,1-婀          2-鹅          3-恶（恶心）          4-饿,4,None,,,,,0,96,96,137,,,,,,,4,1,1.9271173909999106,555.095817489,None,554.590508682,None,0.00118302600003517,0.5011830260000352,556.590932275,None,None,None,,,,,,,13,2021_Dec_30_1307,Whispered,2021.2.3,488.51899750144685,
stimuli/DW_S1_ma4-w_192ms.wav,DW_S1_ma4-w_192ms.wav,1-妈          2-麻          3-马           4-骂,4,None,,,,,0,97,97,95,,,,,,,3,0,1.5063814990000992,557.540539388,None,557.036089992,None,0.0004510493999987375,0.5004510493999987,559.036967179,None,None,None,,,,,,,13,2021_Dec_30_1307,Whispered,2021.2.3,488.51899750144685,
stimuli/DW_S1_yu2-p_192ms.wav,DW_S1_yu2-p_192ms.wav,1-迂          2-鱼          3-雨          4-玉,2,None,,,,,0,98,98,71,,,,,,,2,1,2.6952114900000197,559.567705702,None,559.06233378,None,0.0019128059999502511,0.5019128059999503,561.061271105,None,None,None,,,,,,,13,2021_Dec_30_1307,Whispered,2021.2.3,488.51899750144685,
stimuli/DW_S1_yi1-p_192ms.wav,DW_S1_yi1-p_192ms.wav,1-衣          2-姨          3-椅          4-意,1,None,,,,,0,99,99,23,,,,,,,1,1,1.6206404859999566,562.786273287,None,562.280726218,None,0.0019325949999711156,0.5019325949999711,564.279050097,None,None,None,,,,,,,13,2021_Dec_30_1307,Whispered,2021.2.3,488.51899750144685,
stimuli/DW_S2_yu1-p_192ms.wav,DW_S2_yu1-p_192ms.wav,1-迂          2-鱼          3-雨          4-玉,1,None,,,,,0,100,100,98,,,,,,,1,1,2.1247659399999748,564.930164565,None,564.425082653,None,0.0005317603998946652,0.5005317603998947,566.424763831,None,None,None,,,,,,,13,2021_Dec_30_1307,Whispered,2021.2.3,488.51899750144685,
stimuli/SC_S2_e2-p_305ms.wav,SC_S2_e2-p_305ms.wav,1-婀          2-鹅          3-恶（恶心）          4-饿,2,None,,,,,0,101,101,145,,,,,,,2,1,1.8476403979999532,567.575277639,None,567.070363818,None,0.0008300230000486408,0.5008300230000486,569.070494391,None,None,None,,,,,,,13,2021_Dec_30_1307,Whispered,2021.2.3,488.51899750144685,
stimuli/SC_S2_yi2-w_192ms.wav,SC_S2_yi2-w_192ms.wav,1-衣          2-姨          3-椅          4-意,2,None,,,,,0,102,102,150,,,,,,,1,0,2.1395670230000405,569.9473439989999,None,569.442357479,None,0.0018693339999344971,0.5018693339999345,571.439617925,None,None,None,,,,,,,13,2021_Dec_30_1307,Whispered,2021.2.3,488.51899750144685,
stimuli/DW_S1_yu2-w_305ms.wav,DW_S1_yu2-w_305ms.wav,1-迂          2-鱼          3-雨          4-玉,2,None,,,,,0,103,103,141,,,,,,,1,0,1.6296145630000183,572.609308616,None,572.104240003,None,0.0006279583999457827,0.5006279583999458,574.104720834,None,None,None,,,,,,,13,2021_Dec_30_1307,Whispered,2021.2.3,488.51899750144685,
stimuli/SC_S2_e1-p_305ms.wav,SC_S2_e1-p_305ms.wav,1-婀          2-鹅          3-恶（恶心）          4-饿,1,None,,,,,0,104,104,54,,,,,,,1,1,1.750963517999935,574.7599463409999,None,574.25561698,None,0.000387107000051401,0.5003871070000514,576.255638085,None,None,None,,,,,,,13,2021_Dec_30_1307,Whispered,2021.2.3,488.51899750144685,
stimuli/SC_S1_yu3-p_305ms.wav,SC_S1_yu3-p_305ms.wav,1-迂          2-鱼          3-雨          4-玉,3,None,,,,,0,105,105,122,,,,,,,3,1,2.933534991999977,577.033382096,None,576.527566104,None,0.0009492844001215417,0.5009492844001215,578.529838463,None,None,None,,,,,,,13,2021_Dec_30_1307,Whispered,2021.2.3,488.51899750144685,
stimuli/DW_S2_yu3-p_192ms.wav,DW_S2_yu3-p_192ms.wav,1-迂          2-鱼          3-雨          4-玉,3,None,,,,,0,106,106,2,,,,,,,3,1,1.6475932909999074,580.487319082,None,579.982148567,None,0.001867684800117786,0.5018676848001178,581.983614429,None,None,None,,,,,,,13,2021_Dec_30_1307,Whispered,2021.2.3,488.51899750144685,
stimuli/SC_S2_yu4-p_192ms.wav,SC_S2_yu4-p_192ms.wav,1-迂          2-鱼          3-雨          4-玉,4,None,,,,,0,107,107,107,,,,,,,4,1,1.5760696359999429,582.654857719,None,582.149838261,None,0.0019467167999209778,0.501946716799921,584.150271317,None,None,None,,,,,,,13,2021_Dec_30_1307,Whispered,2021.2.3,488.51899750144685,
stimuli/SC_S2_e1-w_192ms.wav,SC_S2_e1-w_192ms.wav,1-婀          2-鹅          3-恶（恶心）          4-饿,1,None,,,,,0,108,108,143,,,,,,,4,0,1.897048404999964,584.7498724669999,None,584.245037967,None,0.001569724999853861,0.5015697249998539,586.244754451,None,None,None,,,,,,,13,2021_Dec_30_1307,Whispered,2021.2.3,488.51899750144685,
stimuli/SC_S1_e2-w_305ms.wav,SC_S1_e2-w_305ms.wav,1-婀          2-鹅          3-恶（恶心）          4-饿,2,None,,,,,0,109,109,41,,,,,,,3,0,1.873263081999994,587.1656398709999,None,586.661266827,None,0.0002439011999513241,0.5002439011999513,588.662953396,None,None,None,,,,,,,13,2021_Dec_30_1307,Whispered,2021.2.3,488.51899750144685,
stimuli/DW_S1_yi1-w_192ms.wav,DW_S1_yi1-w_192ms.wav,1-衣          2-姨          3-椅          4-意,1,None,,,,,0,110,110,147,,,,,,,1,1,2.2682138659999964,589.562701951,None,589.057847059,None,0.0018951499999957377,0.5018951499999957,591.055232923,None,None,None,,,,,,,13,2021_Dec_30_1307,Whispered,2021.2.3,488.51899750144685,
stimuli/DW_S1_ma1-w_192ms.wav,DW_S1_ma1-w_192ms.wav,1-妈          2-麻          3-马           4-骂,1,None,,,,,0,111,111,25,,,,,,,3,0,1.6955086149999943,592.3514459319999,None,591.846454562,None,0.0019572180000295702,0.5019572180000296,593.844169243,None,None,None,,,,,,,13,2021_Dec_30_1307,Whispered,2021.2.3,488.51899750144685,
stimuli/SC_S2_e2-w_305ms.wav,SC_S2_e2-w_305ms.wav,1-婀          2-鹅          3-恶（恶心）          4-饿,2,None,,,,,0,112,112,99,,,,,,,4,0,1.9246082809999052,594.570315697,None,594.064802728,None,0.00036306499987404095,0.500363064999874,596.063772098,None,None,None,,,,,,,13,2021_Dec_30_1307,Whispered,2021.2.3,488.51899750144685,
stimuli/DW_S1_wu1-p_305ms.wav,DW_S1_wu1-p_305ms.wav,1-乌          2-无          3-五          4-物,1,None,,,,,0,113,113,31,,,,,,,1,1,1.5907241269999304,597.016220324,None,596.510749261,None,0.0011870739998585123,0.5011870739998585,598.513363042,None,None,None,,,,,,,13,2021_Dec_30_1307,Whispered,2021.2.3,488.51899750144685,
stimuli/DW_S1_yu2-p_305ms.wav,DW_S1_yu2-p_305ms.wav,1-迂          2-鱼          3-雨          4-玉,2,None,,,,,0,114,114,40,,,,,,,2,1,1.6577553430000762,599.125171765,None,598.620237881,None,0.0016205580000132613,0.5016205580000133,600.620350393,None,None,None,,,,,,,13,2021_Dec_30_1307,Whispered,2021.2.3,488.51899750144685,
stimuli/SC_S1_wu4-p_192ms.wav,SC_S1_wu4-p_192ms.wav,1-乌          2-无          3-五          4-物,4,None,,,,,0,115,115,120,,,,,,,4,1,1.7207595050000464,601.302140975,None,600.797620857,None,0.001643779000005452,0.5016437790000055,602.79556572,None,None,None,,,,,,,13,2021_Dec_30_1307,Whispered,2021.2.3,488.51899750144685,
stimuli/DW_S1_yi4-w_305ms.wav,DW_S1_yi4-w_305ms.wav,1-衣          2-姨          3-椅          4-意,4,None,,,,,0,116,116,134,,,,,,,1,0,1.3236334660000466,603.547367052,None,603.042008839,None,0.0019463170000335595,0.5019463170000336,None,None,None,None,,,,,,,13,2021_Dec_30_1307,Whispered,2021.2.3,488.51899750144685,
stimuli/DW_S2_e2-w_305ms.wav,DW_S2_e2-w_305ms.wav,1-婀          2-鹅          3-恶（恶心）          4-饿,2,None,,,,,0,117,117,58,,,,,,,2,1,2.7768167130000165,605.390120495,None,604.88551491,None,0.0017784989998972378,0.5017784989998972,606.884938368,None,None,None,,,,,,,13,2021_Dec_30_1307,Whispered,2021.2.3,488.51899750144685,
stimuli/DW_S2_wu2-p_305ms.wav,DW_S2_wu2-p_305ms.wav,1-乌          2-无          3-五          4-物,2,None,,,,,0,118,118,57,,,,,,,1,0,2.2698184269999047,608.689086737,None,608.184504834,None,0.00047695440002826217,0.5004769544000283,610.184077757,None,None,None,,,,,,,13,2021_Dec_30_1307,Whispered,2021.2.3,488.51899750144685,
stimuli/SC_S2_wu4-p_192ms.wav,SC_S2_wu4-p_192ms.wav,1-乌          2-无          3-五          4-物,4,None,,,,,0,119,119,133,,,,,,,4,1,1.719334570000001,611.479575177,None,610.974624629,None,0.0012798648000398316,0.5012798648000398,612.9762138,None,None,None,,,,,,,13,2021_Dec_30_1307,Whispered,2021.2.3,488.51899750144685,
stimuli/SC_S2_yu4-w_305ms.wav,SC_S2_yu4-w_305ms.wav,1-迂          2-鱼          3-雨          4-玉,4,None,,,,,0,120,120,59,,,,,,,1,0,2.0283260380000456,613.722568316,None,613.217153864,None,0.0007158663999007331,0.5007158663999007,615.2180887019999,None,None,None,,,,,,,13,2021_Dec_30_1307,Whispered,2021.2.3,488.51899750144685,
stimuli/SC_S2_wu1-w_305ms.wav,SC_S2_wu1-w_305ms.wav,1-乌          2-无          3-五          4-物,1,None,,,,,0,121,121,24,,,,,,,2,0,2.1648219870000958,616.27408956,None,615.768704112,None,0.0005173203999220277,0.500517320399922,617.768436105,None,None,None,,,,,,,13,2021_Dec_30_1307,Whispered,2021.2.3,488.51899750144685,
stimuli/DW_S2_yi1-w_192ms.wav,DW_S2_yi1-w_192ms.wav,1-衣          2-姨          3-椅          4-意,1,None,,,,,0,122,122,116,,,,,,,1,1,1.4261221870000327,618.956784125,None,618.452120265,None,0.0016928619999134753,0.5016928619999135,None,None,None,None,,,,,,,13,2021_Dec_30_1307,Whispered,2021.2.3,488.51899750144685,
stimuli/DW_S2_yi4-w_305ms.wav,DW_S2_yi4-w_305ms.wav,1-衣          2-姨          3-椅          4-意,4,None,,,,,0,123,123,28,,,,,,,3,0,2.7698757900000146,620.9010655449999,None,620.395647859,None,0.00017401719992449216,0.5001740171999245,622.395147724,None,None,None,,,,,,,13,2021_Dec_30_1307,Whispered,2021.2.3,488.51899750144685,
stimuli/SC_S2_ma4-p_192ms.wav,SC_S2_ma4-p_192ms.wav,1-妈          2-麻          3-马           4-骂,4,None,,,,,0,124,124,12,,,,,,,4,1,1.6335668169999735,624.189324945,None,623.6838229,None,0.0018450390000452899,0.5018450390000453,625.683604214,None,None,None,,,,,,,13,2021_Dec_30_1307,Whispered,2021.2.3,488.51899750144685,
stimuli/DW_S1_ma1-p_305ms.wav,DW_S1_ma1-p_305ms.wav,1-妈          2-麻          3-马           4-骂,1,None,,,,,0,125,125,109,,,,,,,1,1,1.6403530629999068,626.342565336,None,625.837705016,None,0.00017854619989066123,0.5001785461998907,627.8372319599999,None,None,None,,,,,,,13,2021_Dec_30_1307,Whispered,2021.2.3,488.51899750144685,
stimuli/SC_S1_ma3-p_192ms.wav,SC_S1_ma3-p_192ms.wav,1-妈          2-麻          3-马           4-骂,3,None,,,,,0,126,126,34,,,,,,,3,1,2.888217176000012,628.50273052,None,627.997329144,None,0.0003416162001030898,0.5003416162001031,629.997369192,None,None,None,,,,,,,13,2021_Dec_30_1307,Whispered,2021.2.3,488.51899750144685,
stimuli/DW_S1_yi4-p_192ms.wav,DW_S1_yi4-p_192ms.wav,1-衣          2-姨          3-椅          4-意,4,None,,,,,0,127,127,69,,,,,,,4,1,1.5271335919999274,631.911775382,None,631.4067132499999,None,0.00046662099998684425,0.5004666209999868,633.407733201,None,None,None,,,,,,,13,2021_Dec_30_1307,Whispered,2021.2.3,488.51899750144685,
stimuli/DW_S1_wu1-w_305ms.wav,DW_S1_wu1-w_305ms.wav,1-乌          2-无          3-五          4-物,1,None,,,,,0,128,128,70,,,,,,,1,1,1.4738584589999846,633.9570552609999,None,633.452384238,None,0.0016654800000424075,0.5016654800000424,None,None,None,None,,,,,,,13,2021_Dec_30_1307,Whispered,2021.2.3,488.51899750144685,
stimuli/SC_S2_yu3-w_192ms.wav,SC_S2_yu3-w_192ms.wav,1-迂          2-鱼          3-雨          4-玉,3,None,,,,,0,129,129,130,,,,,,,4,0,2.8165699699999323,635.950341143,None,635.445357212,None,0.0019027000000733096,0.5019027000000733,637.445409013,None,None,None,,,,,,,13,2021_Dec_30_1307,Whispered,2021.2.3,488.51899750144685,
stimuli/SC_S2_yi3-p_305ms.wav,SC_S2_yi3-p_305ms.wav,1-衣          2-姨          3-椅          4-意,3,None,,,,,0,130,130,53,,,,,,,3,1,2.021526609000034,639.289384233,None,638.785479698,None,0.0015837419998661062,0.5015837419998661,640.782660059,None,None,None,,,,,,,13,2021_Dec_30_1307,Whispered,2021.2.3,488.51899750144685,
stimuli/DW_S2_wu3-w_192ms.wav,DW_S2_wu3-w_192ms.wav,1-乌          2-无          3-五          4-物,3,None,,,,,0,131,131,82,,,,,,,3,1,1.9012759790000473,641.833640647,None,641.3285854769999,None,0.0004393214001083834,0.5004393214001084,643.331012523,None,None,None,,,,,,,13,2021_Dec_30_1307,Whispered,2021.2.3,488.51899750144685,
stimuli/DW_S2_yi1-w_305ms.wav,DW_S2_yi1-w_305ms.wav,1-衣          2-姨          3-椅          4-意,1,None,,,,,0,132,132,68,,,,,,,1,1,1.3250105519999806,644.257906002,None,643.752552868,None,0.0018913449999899967,0.50189134499999,None,None,None,None,,,,,,,13,2021_Dec_30_1307,Whispered,2021.2.3,488.51899750144685,
stimuli/SC_S2_yi3-w_192ms.wav,SC_S2_yi3-w_192ms.wav,1-衣          2-姨          3-椅          4-意,3,None,,,,,0,133,133,47,,,,,,,4,0,1.9781429849999768,646.100821546,None,645.59593378,None,0.0018909187999724963,0.5018909187999725,647.597641095,None,None,None,,,,,,,13,2021_Dec_30_1307,Whispered,2021.2.3,488.51899750144685,
stimuli/DW_S2_ma2-p_305ms.wav,DW_S2_ma2-p_305ms.wav,1-妈          2-麻          3-马           4-骂,2,None,,,,,0,134,134,101,,,,,,,2,1,4.481696692000014,648.59722746,None,648.092316183,None,0.001537681999934648,0.5015376819999346,650.093983919,None,None,None,,,,,,,13,2021_Dec_30_1307,Whispered,2021.2.3,488.51899750144685,
stimuli/DW_S2_yu4-p_305ms.wav,DW_S2_yu4-p_305ms.wav,1-迂          2-鱼          3-雨          4-玉,4,None,,,,,0,135,135,22,,,,,,,1,0,2.2173704839999573,653.597552761,None,653.092503668,None,0.00191695500006972,0.5019169550000697,655.091215443,None,None,None,,,,,,,13,2021_Dec_30_1307,Whispered,2021.2.3,488.51899750144685,
stimuli/SC_S2_ma3-w_192ms.wav,SC_S2_ma3-w_192ms.wav,1-妈          2-麻          3-马           4-骂,3,None,,,,,0,136,136,10,,,,,,,3,1,1.989019004999932,656.337889726,None,655.832337977,None,0.0007210164000071018,0.5007210164000071,657.831205168,None,None,None,,,,,,,13,2021_Dec_30_1307,Whispered,2021.2.3,488.51899750144685,
stimuli/DW_S2_ma2-w_192ms.wav,DW_S2_ma2-w_192ms.wav,1-妈          2-麻          3-马           4-骂,2,None,,,,,0,137,137,51,,,,,,,3,0,1.7452893549999544,658.845592526,None,658.34092487,None,0.0004184762000249975,0.500418476200025,660.345037375,None,None,None,,,,,,,13,2021_Dec_30_1307,Whispered,2021.2.3,488.51899750144685,
stimuli/SC_S1_ma2-w_305ms.wav,SC_S1_ma2-w_305ms.wav,1-妈          2-麻          3-马           4-骂,2,None,,,,,0,138,138,144,,,,,,,3,0,2.0076072129999147,661.1113043409999,None,660.60647583,None,0.0002960221999046553,0.5002960221999047,662.607380163,None,None,None,,,,,,,13,2021_Dec_30_1307,Whispered,2021.2.3,488.51899750144685,
stimuli/SC_S2_yi1-p_305ms.wav,SC_S2_yi1-p_305ms.wav,1-衣          2-姨          3-椅          4-意,1,None,,,,,0,139,139,83,,,,,,,1,1,1.924050405999992,663.642877054,None,663.1376655619999,None,0.0016096229999220668,0.5016096229999221,665.138681541,None,None,None,,,,,,,13,2021_Dec_30_1307,Whispered,2021.2.3,488.51899750144685,
stimuli/SC_S1_e3-p_305ms.wav,SC_S1_e3-p_305ms.wav,1-婀          2-鹅          3-恶（恶心）          4-饿,3,None,,,,,0,140,140,21,,,,,,,3,1,3.4039264200000616,666.091006759,None,665.586110641,None,0.0014316969999299545,0.50143169699993,667.585718771,None,None,None,,,,,,,13,2021_Dec_30_1307,Whispered,2021.2.3,488.51899750144685,
stimuli/DW_S2_e4-w_305ms.wav,DW_S2_e4-w_305ms.wav,1-婀          2-鹅          3-恶（恶心）          4-饿,4,None,,,,,0,141,141,44,,,,,,,2,0,1.547410861000003,670.011505246,None,669.507229956,None,0.0008128917999101759,0.5008128917999102,671.5055105289999,None,None,None,,,,,,,13,2021_Dec_30_1307,Whispered,2021.2.3,488.51899750144685,
stimuli/SC_S1_yu2-p_305ms.wav,SC_S1_yu2-p_305ms.wav,1-迂          2-鱼          3-雨          4-玉,2,None,,,,,0,142,142,33,,,,,,,2,1,1.5438218289999668,672.0791045789999,None,671.57462935,None,0.0016521520000196688,0.5016521520000197,673.5733782249999,None,None,None,,,,,,,13,2021_Dec_30_1307,Whispered,2021.2.3,488.51899750144685,
stimuli/SC_S2_wu2-w_192ms.wav,SC_S2_wu2-w_192ms.wav,1-乌          2-无          3-五          4-物,2,None,,,,,0,143,143,94,,,,,,,3,0,3.001472637000006,674.14144459,None,673.635928481,None,0.0005460273999915444,0.5005460273999915,675.635869898,None,None,None,,,,,,,13,2021_Dec_30_1307,Whispered,2021.2.3,488.51899750144685,
stimuli/DW_S1_yi1-p_305ms.wav,DW_S1_yi1-p_305ms.wav,1-衣          2-姨          3-椅          4-意,1,None,,,,,0,144,144,18,,,,,,,1,1,1.6676230589999932,677.66731527,None,677.161998998,None,0.0014260249998869767,0.501426024999887,679.164597451,None,None,None,,,,,,,13,2021_Dec_30_1307,Whispered,2021.2.3,488.51899750144685,
stimuli/DW_S1_ma3-p_192ms.wav,DW_S1_ma3-p_192ms.wav,1-妈          2-麻          3-马           4-骂,3,None,,,,,0,145,145,132,,,,,,,3,1,2.5373297429999866,679.853583799,None,679.348758718,None,0.0015777810000372483,0.5015777810000372,681.348800068,None,None,None,,,,,,,13,2021_Dec_30_1307,Whispered,2021.2.3,488.51899750144685,
stimuli/SC_S1_yi2-p_192ms.wav,SC_S1_yi2-p_192ms.wav,1-衣          2-姨          3-椅          4-意,2,None,,,,,0,146,146,136,,,,,,,2,1,1.5114106879999554,682.911501575,None,682.406438583,None,0.0007962649999626592,0.5007962649999627,684.405901626,None,None,None,,,,,,,13,2021_Dec_30_1307,Whispered,2021.2.3,488.51899750144685,
stimuli/SC_S1_yu4-w_192ms.wav,SC_S1_yu4-w_192ms.wav,1-迂          2-鱼          3-雨          4-玉,4,None,,,,,0,147,147,13,,,,,,,1,0,2.5105886759999976,684.944330502,None,684.438666879,None,0.001769146999890836,0.5017691469998908,686.438423276,None,None,None,,,,,,,13,2021_Dec_30_1307,Whispered,2021.2.3,488.51899750144685,
stimuli/DW_S1_e3-p_192ms.wav,DW_S1_e3-p_192ms.wav,1-婀          2-鹅          3-恶（恶心）          4-饿,3,None,,,,,0,148,148,154,,,,,,,3,1,3.735850617999972,687.9750923949999,None,687.469359547,None,0.0005484140000362459,0.5005484140000362,689.472218655,None,None,None,,,,,,,13,2021_Dec_30_1307,Whispered,2021.2.3,488.51899750144685,
stimuli/SC_S1_yu1-p_305ms.wav,SC_S1_yu1-p_305ms.wav,1-迂          2-鱼          3-雨          4-玉,1,None,,,,,0,149,149,42,,,,,,,1,1,1.6304400479999686,692.232485424,None,691.727727624,None,0.0010320704000150727,0.5010320704000151,693.7268462449999,None,None,None,,,,,,,13,2021_Dec_30_1307,Whispered,2021.2.3,488.51899750144685,
stimuli/DW_S1_yi2-p_192ms.wav,DW_S1_yi2-p_192ms.wav,1-衣          2-姨          3-椅          4-意,2,None,,,,,0,150,150,50,,,,,,,2,1,1.519174841999984,694.383747385,None,693.8786561869999,None,0.0005729899999096233,0.5005729899999096,695.877964811,None,None,None,,,,,,,13,2021_Dec_30_1307,Whispered,2021.2.3,488.51899750144685,
stimuli/SC_S1_yi1-w_305ms.wav,SC_S1_yi1-w_305ms.wav,1-衣          2-姨          3-椅          4-意,1,None,,,,,0,151,151,20,,,,,,,4,0,1.7884686689999398,696.418432491,None,695.913103841,None,0.001350481799931913,0.5013504817999319,697.91220021,None,None,None,,,,,,,13,2021_Dec_30_1307,Whispered,2021.2.3,488.51899750144685,
stimuli/SC_S2_yu4-p_305ms.wav,SC_S2_yu4-p_305ms.wav,1-迂          2-鱼          3-雨          4-玉,4,None,,,,,0,152,152,113,,,,,,,4,1,1.9182884779999085,698.728632144,None,698.224018139,None,0.0002627733999815973,0.5002627733999816,700.227233541,None,None,None,,,,,,,13,2021_Dec_30_1307,Whispered,2021.2.3,488.51899750144685,
stimuli/SC_S1_yi4-p_192ms.wav,SC_S1_yi4-p_192ms.wav,1-衣          2-姨          3-椅          4-意,4,None,,,,,0,153,153,128,,,,,,,4,1,1.6485561030000326,701.166360371,None,700.661391723,None,0.00021058399988760357,0.5002105839998876,702.664669204,None,None,None,,,,,,,13,2021_Dec_30_1307,Whispered,2021.2.3,488.51899750144685,
stimuli/SC_S2_yu4-w_192ms.wav,SC_S2_yu4-w_192ms.wav,1-迂          2-鱼          3-雨          4-玉,4,None,,,,,0,154,154,87,,,,,,,4,1,2.023781728000017,703.3352087659999,None,702.8303511,None,0.0014381429998593376,0.5014381429998593,704.831987131,None,None,None,,,,,,,13,2021_Dec_30_1307,Whispered,2021.2.3,488.51899750144685,
stimuli/DW_S1_e4-w_305ms.wav,DW_S1_e4-w_305ms.wav,1-婀          2-鹅          3-恶（恶心）          4-饿,4,None,,,,,0,155,155,131,,,,,,,2,0,2.1932085189999952,705.877702003,None,705.3728617529999,None,0.001657269999896016,0.501657269999896,707.372384113,None,None,None,,,,,,,13,2021_Dec_30_1307,Whispered,2021.2.3,488.51899750144685,
stimuli/SC_S2_wu1-p_305ms.wav,SC_S2_wu1-p_305ms.wav,1-乌          2-无          3-五          4-物,1,None,,,,,0,156,156,3,,,,,,,1,1,1.7485804130000133,708.594304028,None,708.089320994,None,0.0006880294000666254,0.5006880294000666,710.091674535,None,None,None,,,,,,,13,2021_Dec_30_1307,Whispered,2021.2.3,488.51899750144685,
stimuli/SC_S1_wu3-w_192ms.wav,SC_S1_wu3-w_192ms.wav,1-乌          2-无          3-五          4-物,3,None,,,,,0,157,157,26,,,,,,,3,1,3.1450697500000615,710.861839604,None,710.357215093,None,0.0005939431999877343,0.5005939431999877,712.356329365,None,None,None,,,,,,,13,2021_Dec_30_1307,Whispered,2021.2.3,488.51899750144685,
stimuli/DW_S1_ma4-p_192ms.wav,DW_S1_ma4-p_192ms.wav,1-妈          2-麻          3-马           4-骂,4,None,,,,,0,158,158,78,,,,,,,4,1,2.9974638209999966,714.529429038,None,714.024199376,None,0.0007766293999793561,0.5007766293999794,716.026672657,None,None,None,,,,,,,13,2021_Dec_30_1307,Whispered,2021.2.3,488.51899750144685,
stimuli/SC_S1_wu1-w_192ms.wav,SC_S1_wu1-w_192ms.wav,1-乌          2-无          3-五          4-物,1,None,,,,,0,159,159,118,,,,,,,2,0,2.1447818579999876,718.0461362899999,None,717.541218118,None,0.0018735899999455796,0.5018735899999456,719.540917788,None,None,None,,,,,,,13,2021_Dec_30_1307,Whispered,2021.2.3,488.51899750144685,
stimuli/SC_S2_yu2-w_192ms.wav,SC_S2_yu2-w_192ms.wav,1-迂          2-鱼          3-雨          4-玉,2,None,,,,,,,,,0,0,0,79,,,1,0,4.451099125000042,726.89182813,None,726.388127788,None,0.00021305059976839402,0.5002130505997684,728.388497209,None,None,None,,,720.198938966,None,,,13,2021_Dec_30_1307,Whispered,2021.2.3,488.51899750144685,
stimuli/SC_S1_ma3-p_305ms.wav,SC_S1_ma3-p_305ms.wav,1-妈          2-麻          3-马           4-骂,3,None,,,,,,,,,0,1,1,39,,,3,1,1.6440812050000204,731.866859989,None,731.362627267,None,0.001064695999957621,0.5010646959999576,733.361029142,None,None,None,,,,,,,13,2021_Dec_30_1307,Whispered,2021.2.3,488.51899750144685,
stimuli/SC_S1_yi1-p_192ms.wav,SC_S1_yi1-p_192ms.wav,1-衣          2-姨          3-椅          4-意,1,None,,,,,,,,,0,2,2,141,,,1,1,1.5246924639999406,734.034216722,None,733.528714376,None,0.0015997379998680117,0.501599737999868,735.530097402,None,None,None,,,,,,,13,2021_Dec_30_1307,Whispered,2021.2.3,488.51899750144685,
stimuli/DW_S1_yu4-p_305ms.wav,DW_S1_yu4-p_305ms.wav,1-迂          2-鱼          3-雨          4-玉,4,None,,,,,,,,,0,3,3,47,,,4,1,1.6633728009999231,736.079559528,None,735.5745595559999,None,0.001434216000006927,0.5014342160000069,737.575811284,None,None,None,,,,,,,13,2021_Dec_30_1307,Whispered,2021.2.3,488.51899750144685,
stimuli/SC_S2_e3-w_305ms.wav,SC_S2_e3-w_305ms.wav,1-婀          2-鹅          3-恶（恶心）          4-饿,3,None,,,,,,,,,0,4,4,135,,,4,0,1.7675216970000065,738.263391404,None,737.758396014,None,0.0007490359998882923,0.5007490359998883,739.761467043,None,None,None,,,,,,,13,2021_Dec_30_1307,Whispered,2021.2.3,488.51899750144685,
stimuli/SC_S2_yi4-p_305ms.wav,SC_S2_yi4-p_305ms.wav,1-衣          2-姨          3-椅          4-意,4,None,,,,,,,,,0,5,5,21,,,4,1,1.858985256999972,740.555909776,None,740.051151718,None,0.0011176960000511826,0.5011176960000512,742.050531805,None,None,None,,,,,,,13,2021_Dec_30_1307,Whispered,2021.2.3,488.51899750144685,
stimuli/DW_S1_yi4-p_305ms.wav,DW_S1_yi4-p_305ms.wav,1-衣          2-姨          3-椅          4-意,4,None,,,,,,,,,0,6,6,72,,,4,1,1.2284813740000118,742.930469057,None,742.425579577,None,0.001327282800048124,0.5013272828000481,None,None,None,None,,,,,,,13,2021_Dec_30_1307,Whispered,2021.2.3,488.51899750144685,
stimuli/DW_S2_ma1-p_192ms.wav,DW_S2_ma1-p_192ms.wav,1-妈          2-麻          3-马           4-骂,1,None,,,,,,,,,0,7,7,9,,,1,1,1.4970016830000077,744.685903523,None,744.180781583,None,0.0003806689999237278,0.5003806689999237,746.180690952,None,None,None,,,,,,,13,2021_Dec_30_1307,Whispered,2021.2.3,488.51899750144685,
stimuli/SC_S1_ma1-p_305ms.wav,SC_S1_ma1-p_305ms.wav,1-妈          2-麻          3-马           4-骂,1,None,,,,,,,,,0,8,8,111,,,1,1,1.0496675800000048,746.7012456909999,None,746.196180495,None,0.0005389962001345339,0.5005389962001345,None,None,None,None,,,,,,,13,2021_Dec_30_1307,Whispered,2021.2.3,488.51899750144685,
stimuli/DW_S1_e1-w_192ms.wav,DW_S1_e1-w_192ms.wav,1-婀          2-鹅          3-恶（恶心）          4-饿,1,None,,,,,,,,,0,9,9,55,,,2,0,1.7275697260000697,748.271369604,None,747.76641259,None,0.001116716000069573,0.5011167160000696,749.7663915759999,None,None,None,,,,,,,13,2021_Dec_30_1307,Whispered,2021.2.3,488.51899750144685,
stimuli/SC_S1_wu1-w_305ms.wav,SC_S1_wu1-w_305ms.wav,1-乌          2-无          3-五          4-物,1,None,,,,,,,,,0,10,10,45,,,2,0,1.5987092599999642,750.520287142,None,750.015638436,None,0.00023787739996805612,0.5002378773999681,752.018011326,None,None,None,,,,,,,13,2021_Dec_30_1307,Whispered,2021.2.3,488.51899750144685,
stimuli/DW_S2_ma3-w_192ms.wav,DW_S2_ma3-w_192ms.wav,1-妈          2-麻          3-马           4-骂,3,None,,,,,,,,,0,11,11,133,,,3,1,1.6806316610000067,752.638359006,None,752.133054552,None,0.0014930369999319737,0.501493036999932,754.133466883,None,None,None,,,,,,,13,2021_Dec_30_1307,Whispered,2021.2.3,488.51899750144685,
stimuli/DW_S1_yu3-w_305ms.wav,DW_S1_yu3-w_305ms.wav,1-迂          2-鱼          3-雨          4-玉,3,None,,,,,,,,,0,12,12,91,,,2,0,1.4890237820000038,754.837891562,None,754.332297372,None,0.0006277873999351868,0.5006277873999352,756.332179108,None,None,None,,,,,,,13,2021_Dec_30_1307,Whispered,2021.2.3,488.51899750144685,
stimuli/DW_S1_yu4-w_192ms.wav,DW_S1_yu4-w_192ms.wav,1-迂          2-鱼          3-雨          4-玉,4,None,,,,,,,,,0,13,13,61,,,4,1,1.3059277550000843,756.844991289,None,756.3398367149999,None,0.00029952119996323745,0.5002995211999632,None,None,None,None,,,,,,,13,2021_Dec_30_1307,Whispered,2021.2.3,488.51899750144685,
stimuli/SC_S2_yi1-w_192ms.wav,SC_S2_yi1-w_192ms.wav,1-衣          2-姨          3-椅          4-意,1,None,,,,,,,,,0,14,14,116,,,1,1,1.6884488670000337,758.670471927,None,758.165433075,None,0.0009055829998487752,0.5009055829998488,760.166503079,None,None,None,,,,,,,13,2021_Dec_30_1307,Whispered,2021.2.3,488.51899750144685,
stimuli/DW_S1_yu4-p_192ms.wav,DW_S1_yu4-p_192ms.wav,1-迂          2-鱼          3-雨          4-玉,4,None,,,,,,,,,0,15,15,143,,,4,1,1.5014775629999804,760.8814622839999,None,760.3765711149999,None,0.0004888854000455467,0.5004888854000455,762.376827379,None,None,None,,,,,,,13,2021_Dec_30_1307,Whispered,2021.2.3,488.51899750144685,
stimuli/DW_S1_wu4-w_192ms.wav,DW_S1_wu4-w_192ms.wav,1-乌          2-无          3-五          4-物,4,None,,,,,,,,,0,16,16,37,,,2,0,1.860197936999839,762.90671998,None,762.401515676,None,0.0010079953997319535,0.501007995399732,764.3994775990001,None,None,None,,,,,,,13,2021_Dec_30_1307,Whispered,2021.2.3,488.51899750144685,
stimuli/DW_S1_yu2-w_192ms.wav,DW_S1_yu2-w_192ms.wav,1-迂          2-鱼          3-雨          4-玉,2,None,,,,,,,,,0,17,17,139,,,2,1,1.159282148000102,765.287666999,None,764.782250716,None,0.0015717649998805427,0.5015717649998805,None,None,None,None,,,,,,,13,2021_Dec_30_1307,Whispered,2021.2.3,488.51899750144685,
stimuli/SC_S1_yi3-w_305ms.wav,SC_S1_yi3-w_305ms.wav,1-衣          2-姨          3-椅          4-意,3,None,,,,,,,,,0,18,18,5,,,4,0,1.3355834980000054,766.9673208620001,None,766.462070207,None,0.0005724199997985124,0.5005724199997985,None,None,None,None,,,,,,,13,2021_Dec_30_1307,Whispered,2021.2.3,488.51899750144685,
stimuli/SC_S2_yu3-w_305ms.wav,SC_S2_yu3-w_305ms.wav,1-迂          2-鱼          3-雨          4-玉,3,None,,,,,,,,,0,19,19,62,,,4,0,1.6086619999998675,768.8222577790001,None,768.317144627,None,0.0016385920000629994,0.501638592000063,770.317576345,None,None,None,,,,,,,13,2021_Dec_30_1307,Whispered,2021.2.3,488.51899750144685,
stimuli/SC_S2_wu2-p_305ms.wav,SC_S2_wu2-p_305ms.wav,1-乌          2-无          3-五          4-物,2,None,,,,,,,,,0,20,20,138,,,2,1,2.0262627059998977,770.948647114,None,770.443985038,None,0.0005485154001689807,0.500548515400169,772.445297333,None,None,None,,,,,,,13,2021_Dec_30_1307,Whispered,2021.2.3,488.51899750144685,
stimuli/DW_S1_wu2-w_192ms.wav,DW_S1_wu2-w_192ms.wav,1-乌          2-无          3-五          4-物,2,None,,,,,,,,,0,21,21,144,,,2,1,1.6974845229999573,773.4934456269999,None,772.988049377,None,0.001908251799932259,0.5019082517999323,774.987677515,None,None,None,,,,,,,13,2021_Dec_30_1307,Whispered,2021.2.3,488.51899750144685,
stimuli/DW_S1_ma1-w_305ms.wav,DW_S1_ma1-w_305ms.wav,1-妈          2-麻          3-马           4-骂,1,None,,,,,,,,,0,22,22,106,,,3,0,1.5612070109998513,775.7096996239999,None,775.2045957690001,None,0.0013646749998770247,0.501364674999877,777.206578664,None,None,None,,,,,,,13,2021_Dec_30_1307,Whispered,2021.2.3,488.51899750144685,
stimuli/SC_S1_wu3-p_305ms.wav,SC_S1_wu3-p_305ms.wav,1-乌          2-无          3-五          4-物,3,None,,,,,,,,,0,23,23,146,,,3,1,1.5906693869999344,777.7922538679999,None,777.2878849570001,None,0.0007912843998383323,0.5007912843998383,779.286525463,None,None,None,,,,,,,13,2021_Dec_30_1307,Whispered,2021.2.3,488.51899750144685,
stimuli/SC_S2_ma1-p_305ms.wav,SC_S2_ma1-p_305ms.wav,1-妈          2-麻          3-马           4-骂,1,None,,,,,,,,,0,24,24,29,,,1,1,1.8176259370000025,779.901292658,None,779.39618284,None,0.00038579240003855375,0.5003857924000386,781.3946291169999,None,None,None,,,,,,,13,2021_Dec_30_1307,Whispered,2021.2.3,488.51899750144685,
stimuli/DW_S1_ma2-p_192ms.wav,DW_S1_ma2-p_192ms.wav,1-妈          2-麻          3-马           4-骂,2,None,,,,,,,,,0,25,25,142,,,2,1,1.8750423199999204,782.235892559,None,781.7307413679999,None,0.0008922497997900791,0.5008922497997901,783.730319589,None,None,None,,,,,,,13,2021_Dec_30_1307,Whispered,2021.2.3,488.51899750144685,
stimuli/SC_S2_ma4-p_305ms.wav,SC_S2_ma4-p_305ms.wav,1-妈          2-麻          3-马           4-骂,4,None,,,,,,,,,0,26,26,96,,,3,0,1.4121530019999682,784.6267977900001,None,784.121518493,None,0.0009366687997953704,0.5009366687997954,None,None,None,None,,,,,,,13,2021_Dec_30_1307,Whispered,2021.2.3,488.51899750144685,
stimuli/DW_S2_e3-p_305ms.wav,DW_S2_e3-p_305ms.wav,1-婀          2-鹅          3-恶（恶心）          4-饿,3,None,,,,,,,,,0,27,27,71,,,3,1,2.175198695000063,786.559720957,None,786.054784713,None,0.00032755199958955927,0.5003275519995896,788.057565517,None,None,None,,,,,,,13,2021_Dec_30_1307,Whispered,2021.2.3,488.51899750144685,
stimuli/SC_S1_ma2-p_192ms.wav,SC_S1_ma2-p_192ms.wav,1-妈          2-麻          3-马           4-骂,2,None,,,,,,,,,0,28,28,82,,,2,1,1.863256918999923,789.2556475319999,None,788.7511632909999,None,0.0015036229999623174,0.5015036229999623,790.748113339,None,None,None,,,,,,,13,2021_Dec_30_1307,Whispered,2021.2.3,488.51899750144685,
stimuli/SC_S1_yu2-p_192ms.wav,SC_S1_yu2-p_192ms.wav,1-迂          2-鱼          3-雨          4-玉,2,None,,,,,,,,,0,29,29,105,,,2,1,2.2977114339998934,791.6372131059999,None,791.1317632009999,None,0.0017436709999856248,0.5017436709999856,793.1332589719999,None,None,None,,,,,,,13,2021_Dec_30_1307,Whispered,2021.2.3,488.51899750144685,
stimuli/DW_S2_e4-p_305ms.wav,DW_S2_e4-p_305ms.wav,1-婀          2-鹅          3-恶（恶心）          4-饿,4,None,,,,,,,,,0,30,30,44,,,4,1,1.6649329019999186,794.453974254,None,793.9489446609999,None,0.0013667360001363704,0.5013667360001364,795.9465902989999,None,None,None,,,,,,,13,2021_Dec_30_1307,Whispered,2021.2.3,488.51899750144685,
stimuli/DW_S1_wu3-p_192ms.wav,DW_S1_wu3-p_192ms.wav,1-乌          2-无          3-五          4-物,3,None,,,,,,,,,0,31,31,99,,,3,1,1.840808066999898,796.6381110230001,None,796.133241808,None,0.001153023000142639,0.5011530230001426,798.1357329389999,None,None,None,,,,,,,13,2021_Dec_30_1307,Whispered,2021.2.3,488.51899750144685,
stimuli/DW_S2_e3-w_192ms.wav,DW_S2_e3-w_192ms.wav,1-婀          2-鹅          3-恶（恶心）          4-饿,3,None,,,,,,,,,0,32,32,76,,,2,0,1.5665255439998873,799.0003842049999,None,798.4963315020001,None,0.001798531999838815,0.5017985319998388,800.4971863459999,None,None,None,,,,,,,13,2021_Dec_30_1307,Whispered,2021.2.3,488.51899750144685,
stimuli/SC_S1_wu3-p_192ms.wav,SC_S1_wu3-p_192ms.wav,1-乌          2-无          3-五          4-物,3,None,,,,,,,,,0,33,33,30,,,3,1,2.7509597139999187,801.0879480259999,None,800.583322544,None,0.0005697253998278029,0.5005697253998278,802.5854342829999,None,None,None,,,,,,,13,2021_Dec_30_1307,Whispered,2021.2.3,488.51899750144685,
stimuli/SC_S1_ma4-p_305ms.wav,SC_S1_ma4-p_305ms.wav,1-妈          2-麻          3-马           4-骂,4,None,,,,,,,,,0,34,34,59,,,4,1,1.239482351000106,804.35946067,None,803.85485802,None,0.0012084719999165827,0.5012084719999166,None,None,None,None,,,,,,,13,2021_Dec_30_1307,Whispered,2021.2.3,488.51899750144685,
stimuli/SC_S1_yi2-w_192ms.wav,SC_S1_yi2-w_192ms.wav,1-衣          2-姨          3-椅          4-意,2,None,,,,,,,,,0,35,35,86,,,4,0,1.6570884850000311,806.1178564359999,None,805.613215406,None,0.0009973680000712193,0.5009973680000712,807.6115268100001,None,None,None,,,,,,,13,2021_Dec_30_1307,Whispered,2021.2.3,488.51899750144685,
stimuli/DW_S2_wu3-w_305ms.wav,DW_S2_wu3-w_305ms.wav,1-乌          2-无          3-五          4-物,3,None,,,,,,,,,0,36,36,119,,,3,1,1.7607552120000491,808.294155513,None,807.7887460549999,None,0.001803641000378775,0.5018036410003788,809.786938893,None,None,None,,,,,,,13,2021_Dec_30_1307,Whispered,2021.2.3,488.51899750144685,
stimuli/DW_S2_wu2-w_192ms.wav,DW_S2_wu2-w_192ms.wav,1-乌          2-无          3-五          4-物,2,None,,,,,,,,,0,37,37,73,,,3,0,1.6918222839999544,810.571089788,None,810.066633838,None,0.0010030618000200775,0.5010030618000201,812.064755538,None,None,None,,,,,,,13,2021_Dec_30_1307,Whispered,2021.2.3,488.51899750144685,
stimuli/DW_S2_e4-w_192ms.wav,DW_S2_e4-w_192ms.wav,1-婀          2-鹅          3-恶（恶心）          4-饿,4,None,,,,,,,,,0,38,38,129,,,2,0,1.3344248589999097,812.784508141,None,812.279395878,None,0.0007639240000116843,0.5007639240000117,None,None,None,None,,,,,,,13,2021_Dec_30_1307,Whispered,2021.2.3,488.51899750144685,
stimuli/SC_S1_yu1-w_305ms.wav,SC_S1_yu1-w_305ms.wav,1-迂          2-鱼          3-雨          4-玉,1,None,,,,,,,,,0,39,39,158,,,4,0,1.896261061000132,814.638684849,None,814.133389683,None,0.0014964570000302047,0.5014964570000302,816.134238153,None,None,None,,,,,,,13,2021_Dec_30_1307,Whispered,2021.2.3,488.51899750144685,
stimuli/SC_S2_yi4-w_192ms.wav,SC_S2_yi4-w_192ms.wav,1-衣          2-姨          3-椅          4-意,4,None,,,,,,,,,0,40,40,101,,,4,1,1.5366046199999346,817.0542887329999,None,816.5489361250001,None,0.0008908299996619462,0.500890829999662,818.5486077869999,None,None,None,,,,,,,13,2021_Dec_30_1307,Whispered,2021.2.3,488.51899750144685,
stimuli/DW_S2_yi3-p_192ms.wav,DW_S2_yi3-p_192ms.wav,1-衣          2-姨          3-椅          4-意,3,None,,,,,,,,,0,41,41,58,,,3,1,1.6442851970000447,819.106623974,None,818.6027657579999,None,0.0005738417999054946,0.5005738417999055,820.601865752,None,None,None,,,,,,,13,2021_Dec_30_1307,Whispered,2021.2.3,488.51899750144685,
stimuli/DW_S1_e1-w_305ms.wav,DW_S1_e1-w_305ms.wav,1-婀          2-鹅          3-恶（恶心）          4-饿,1,None,,,,,,,,,0,42,42,107,,,2,0,1.3643322630000512,821.2745417049999,None,820.770230682,None,0.0018394009998701222,0.5018394009998701,None,None,None,None,,,,,,,13,2021_Dec_30_1307,Whispered,2021.2.3,488.51899750144685,
stimuli/DW_S1_yi3-p_192ms.wav,DW_S1_yi3-p_192ms.wav,1-衣          2-姨          3-椅          4-意,3,None,,,,,,,,,0,43,43,84,,,3,1,1.1503198339999017,823.160607335,None,822.6559465649999,None,0.0002427709998755745,0.5002427709998756,None,None,None,None,,,,,,,13,2021_Dec_30_1307,Whispered,2021.2.3,488.51899750144685,
stimuli/DW_S2_wu1-w_305ms.wav,DW_S2_wu1-w_305ms.wav,1-乌          2-无          3-五          4-物,1,None,,,,,,,,,0,44,44,121,,,2,0,1.5579178969999248,824.832999437,None,824.3276324249999,None,0.00047436039994863677,0.5004743603999486,826.326822701,None,None,None,,,,,,,13,2021_Dec_30_1307,Whispered,2021.2.3,488.51899750144685,
stimuli/SC_S2_yi2-p_192ms.wav,SC_S2_yi2-p_192ms.wav,1-衣          2-姨          3-椅          4-意,2,None,,,,,,,,,0,45,45,90,,,2,1,1.716987237000012,826.9139321859999,None,826.4096163840001,None,0.00181832399994164,0.5018183239999416,828.408203582,None,None,None,,,,,,,13,2021_Dec_30_1307,Whispered,2021.2.3,488.51899750144685,
stimuli/DW_S1_e2-p_305ms.wav,DW_S1_e2-p_305ms.wav,1-婀          2-鹅          3-恶（恶心）          4-饿,2,None,,,,,,,,,0,46,46,149,,,2,1,1.1038548079998236,829.1511118310001,None,828.6463816249999,None,0.0007370029998128302,0.5007370029998128,None,None,None,None,,,,,,,13,2021_Dec_30_1307,Whispered,2021.2.3,488.51899750144685,
stimuli/DW_S2_wu2-w_305ms.wav,DW_S2_wu2-w_305ms.wav,1-乌          2-无          3-五          4-物,2,None,,,,,,,,,0,47,47,34,,,3,0,2.128296829999954,830.7746264819999,None,830.269164274,None,0.0011478080000415503,0.5011478080000416,832.268577149,None,None,None,,,,,,,13,2021_Dec_30_1307,Whispered,2021.2.3,488.51899750144685,
stimuli/SC_S2_wu3-p_192ms.wav,SC_S2_wu3-p_192ms.wav,1-乌          2-无          3-五          4-物,3,None,,,,,,,,,0,48,48,1,,,3,1,2.269655041000078,833.4172823749999,None,832.911831214,None,0.00023011020016383554,0.5002301102001638,834.912472866,None,None,None,,,,,,,13,2021_Dec_30_1307,Whispered,2021.2.3,488.51899750144685,
stimuli/DW_S2_yi4-w_192ms.wav,DW_S2_yi4-w_192ms.wav,1-衣          2-姨          3-椅          4-意,4,None,,,,,,,,,0,49,49,50,,,4,1,1.5112878830000227,836.2076276009999,None,835.7028906710001,None,0.0007822649997706321,0.5007822649997706,837.703236684,None,None,None,,,,,,,13,2021_Dec_30_1307,Whispered,2021.2.3,488.51899750144685,
stimuli/SC_S1_e1-w_192ms.wav,SC_S1_e1-w_192ms.wav,1-婀          2-鹅          3-恶（恶心）          4-饿,1,None,,,,,,,,,0,50,50,31,,,4,0,2.2776939620000576,838.241224218,None,837.73598467,None,0.0019476049997138034,0.5019476049997138,839.738326673,None,None,None,,,,,,,13,2021_Dec_30_1307,Whispered,2021.2.3,488.51899750144685,
stimuli/SC_S2_yi2-w_305ms.wav,SC_S2_yi2-w_305ms.wav,1-衣          2-姨          3-椅          4-意,2,None,,,,,,,,,0,51,51,125,,,2,1,1.9585362349998832,841.0403849159999,None,840.535398036,None,0.00022180899986778968,0.5002218089998678,842.5374523290001,None,None,None,,,,,,,13,2021_Dec_30_1307,Whispered,2021.2.3,488.51899750144685,
stimuli/SC_S2_wu3-p_305ms.wav,SC_S2_wu3-p_305ms.wav,1-乌          2-无          3-五          4-物,3,None,,,,,,,,,0,52,52,28,,,3,1,1.9068461310000657,843.5160733829999,None,843.0117305299999,None,0.0007055733999550284,0.500705573399955,845.0133694949999,None,None,None,,,,,,,13,2021_Dec_30_1307,Whispered,2021.2.3,488.51899750144685,
stimuli/SC_S2_yu2-p_192ms.wav,SC_S2_yu2-p_192ms.wav,1-迂          2-鱼          3-雨          4-玉,2,Y,,,,,,,,,0,53,53,124,,,2,1,1.6815379399999983,845.941363045,None,845.436728157,None,0.0013013529996896978,0.5013013529996897,847.438743088,None,None,None,,,,,,,13,2021_Dec_30_1307,Whispered,2021.2.3,488.51899750144685,
stimuli/SC_S2_ma3-p_192ms.wav,SC_S2_ma3-p_192ms.wav,1-妈          2-麻          3-马           4-骂,3,None,,,,,,,,,0,54,54,41,,,3,1,2.05459718100019,848.1443062980001,None,847.6391443040001,None,0.0005216413999278302,0.5005216413999278,849.6419345329999,None,None,None,,,,,,,13,2021_Dec_30_1307,Whispered,2021.2.3,488.51899750144685,
stimuli/DW_S2_yu4-p_192ms.wav,DW_S2_yu4-p_192ms.wav,1-迂          2-鱼          3-雨          4-玉,4,None,,,,,,,,,0,55,55,56,,,3,0,2.8684380779998264,850.7224554579999,None,850.217268496,None,0.0007123653999769886,0.500712365399977,852.21918128,None,None,None,,,,,,,13,2021_Dec_30_1307,Whispered,2021.2.3,488.51899750144685,
stimuli/SC_S1_wu4-w_305ms.wav,SC_S1_wu4-w_305ms.wav,1-乌          2-无          3-五          4-物,4,None,,,,,,,,,0,56,56,110,,,3,0,2.1203425469998365,854.1106245069999,None,853.606130946,None,0.0016898679998575972,0.5016898679998576,855.6077909439999,None,None,None,,,,,,,13,2021_Dec_30_1307,Whispered,2021.2.3,488.51899750144685,
stimuli/SC_S1_yu4-p_192ms.wav,SC_S1_yu4-p_192ms.wav,1-迂          2-鱼          3-雨          4-玉,4,None,,,,,,,,,0,57,57,153,,,4,1,1.8208410479999202,856.754071236,None,856.248920787,None,0.0007207133999145299,0.5007207133999145,858.251123631,None,None,None,,,,,,,13,2021_Dec_30_1307,Whispered,2021.2.3,488.51899750144685,
stimuli/DW_S2_e1-p_305ms.wav,DW_S2_e1-p_305ms.wav,1-婀          2-鹅          3-恶（恶心）          4-饿,1,None,,,,,,,,,0,58,58,108,,,1,1,1.891716451999855,859.099203522,None,858.5947439119999,None,0.001871308999852772,0.5018713089998528,860.5930523549999,None,None,None,,,,,,,13,2021_Dec_30_1307,Whispered,2021.2.3,488.51899750144685,
stimuli/SC_S2_yu1-p_305ms.wav,SC_S2_yu1-p_305ms.wav,1-迂          2-鱼          3-雨          4-玉,1,None,,,,,,,,,0,59,59,63,,,1,1,1.8920590529999117,861.514853001,None,861.0096114669999,None,0.0003977193998707662,0.5003977193998708,863.0092580639999,None,None,None,,,,,,,13,2021_Dec_30_1307,Whispered,2021.2.3,488.51899750144685,
stimuli/DW_S2_ma4-w_305ms.wav,DW_S2_ma4-w_305ms.wav,1-妈          2-麻          3-马           4-骂,4,None,,,,,,,,,0,60,60,69,,,3,0,1.6044860110000627,863.930427789,None,863.425479592,None,0.00012813939997613488,0.5001281393999761,865.4278842790001,None,None,None,,,,,,,13,2021_Dec_30_1307,Whispered,2021.2.3,488.51899750144685,
stimuli/DW_S1_yu3-w_192ms.wav,DW_S1_yu3-w_192ms.wav,1-迂          2-鱼          3-雨          4-玉,3,None,,,,,,,,,0,61,61,13,,,3,1,1.2551649009999437,866.055737111,None,865.55097193,None,0.00180918399996699,0.501809183999967,None,None,None,None,,,,,,,13,2021_Dec_30_1307,Whispered,2021.2.3,488.51899750144685,
stimuli/DW_S2_e2-p_192ms.wav,DW_S2_e2-p_192ms.wav,1-婀          2-鹅          3-恶（恶心）          4-饿,2,None,,,,,,,,,0,62,62,15,,,2,1,1.6216849029999594,867.8332027590001,None,867.3280267829999,None,0.0016812620001473988,0.5016812620001474,869.3292367509999,None,None,None,,,,,,,13,2021_Dec_30_1307,Whispered,2021.2.3,488.51899750144685,
stimuli/DW_S1_e3-w_305ms.wav,DW_S1_e3-w_305ms.wav,1-婀          2-鹅          3-恶（恶心）          4-饿,3,None,,,,,,,,,0,63,63,132,,,3,1,1.757605169000044,869.9693233520001,None,869.4644341530001,None,0.001135444799956531,0.5011354447999565,871.463224665,None,None,None,,,,,,,13,2021_Dec_30_1307,Whispered,2021.2.3,488.51899750144685,
stimuli/SC_S1_yi2-w_305ms.wav,SC_S1_yi2-w_305ms.wav,1-衣          2-姨          3-椅          4-意,2,None,,,,,,,,,0,64,64,67,,,4,0,1.509431344000177,872.249496262,None,871.7447623490001,None,0.0012073390003024542,0.5012073390003025,873.7452836870001,None,None,None,,,,,,,13,2021_Dec_30_1307,Whispered,2021.2.3,488.51899750144685,
stimuli/SC_S2_yi3-p_192ms.wav,SC_S2_yi3-p_192ms.wav,1-衣          2-姨          3-椅          4-意,3,None,,,,,,,,,0,65,65,20,,,3,1,1.8314092139999048,874.27948632,None,873.7738601479999,None,0.00017917319996740844,0.5001791731999674,875.773663969,None,None,None,,,,,,,13,2021_Dec_30_1307,Whispered,2021.2.3,488.51899750144685,
stimuli/DW_S2_wu4-p_305ms.wav,DW_S2_wu4-p_305ms.wav,1-乌          2-无          3-五          4-物,4,None,,,,,,,,,0,66,66,19,,,4,1,1.6715281400001913,876.631380685,None,876.1254053399999,None,0.0012426349996985664,0.5012426349996986,878.1263372059999,None,None,None,,,,,,,13,2021_Dec_30_1307,Whispered,2021.2.3,488.51899750144685,
stimuli/SC_S2_yu2-p_305ms.wav,SC_S2_yu2-p_305ms.wav,1-迂          2-鱼          3-雨          4-玉,2,None,,,,,,,,,0,67,67,159,,,2,1,1.9080180290000044,878.8269055869999,None,878.3217675530001,None,0.0006658214001618035,0.5006658214001618,880.3220743579999,None,None,None,,,,,,,13,2021_Dec_30_1307,Whispered,2021.2.3,488.51899750144685,
stimuli/SC_S2_wu1-w_192ms.wav,SC_S2_wu1-w_192ms.wav,1-乌          2-无          3-五          4-物,1,None,,,,,,,,,0,68,68,92,,,3,0,1.692402398000013,881.258521696,None,880.7543191670001,None,0.0005655474001287075,0.5005655474001287,882.754262563,None,None,None,,,,,,,13,2021_Dec_30_1307,Whispered,2021.2.3,488.51899750144685,
stimuli/DW_S1_e1-p_192ms.wav,DW_S1_e1-p_192ms.wav,1-婀          2-鹅          3-恶（恶心）          4-饿,1,Y,,,,,,,,,0,69,69,80,,,1,1,1.523539817000028,883.4753989330001,None,882.9714962639999,None,0.0015420460001678293,0.5015420460001678,884.969878106,None,None,None,,,,,,,13,2021_Dec_30_1307,Whispered,2021.2.3,488.51899750144685,
stimuli/DW_S2_yu1-w_305ms.wav,DW_S2_yu1-w_305ms.wav,1-迂          2-鱼          3-雨          4-玉,1,None,,,,,,,,,0,70,70,10,,,4,0,1.4327360620000036,885.518223635,None,885.01364151,None,0.0012034890000904852,0.5012034890000905,None,None,None,None,,,,,,,13,2021_Dec_30_1307,Whispered,2021.2.3,488.51899750144685,
stimuli/DW_S1_wu3-w_192ms.wav,DW_S1_wu3-w_192ms.wav,1-乌          2-无          3-五          4-物,3,None,,,,,,,,,0,71,71,74,,,3,1,1.1699961219999295,887.4689188399999,None,886.9641483469999,None,0.001451141000188727,0.5014511410001887,None,None,None,None,,,,,,,13,2021_Dec_30_1307,Whispered,2021.2.3,488.51899750144685,
stimuli/DW_S2_yu4-w_192ms.wav,DW_S2_yu4-w_192ms.wav,1-迂          2-鱼          3-雨          4-玉,4,None,,,,,,,,,0,72,72,43,,,4,1,1.3274073299999145,889.1594762139999,None,888.654546288,None,0.0016544210000120074,0.501654421000012,None,None,None,None,,,,,,,13,2021_Dec_30_1307,Whispered,2021.2.3,488.51899750144685,
stimuli/DW_S2_ma4-p_305ms.wav,DW_S2_ma4-p_305ms.wav,1-妈          2-麻          3-马           4-骂,4,None,,,,,,,,,0,73,73,81,,,4,1,1.6483874969999306,891.006539612,None,890.5017050309999,None,0.0013017129999752797,0.5013017129999753,892.5014228629999,None,None,None,,,,,,,13,2021_Dec_30_1307,Whispered,2021.2.3,488.51899750144685,
stimuli/DW_S1_ma4-w_305ms.wav,DW_S1_ma4-w_305ms.wav,1-妈          2-麻          3-马           4-骂,4,None,,,,,,,,,0,74,74,64,,,3,0,1.2558255670001017,893.175084394,None,892.6697862689999,None,0.001840702800109284,0.5018407028001093,None,None,None,None,,,,,,,13,2021_Dec_30_1307,Whispered,2021.2.3,488.51899750144685,
stimuli/SC_S1_wu4-p_305ms.wav,SC_S1_wu4-p_305ms.wav,1-乌          2-无          3-五          4-物,4,None,,,,,,,,,0,75,75,75,,,4,1,1.7921244679998836,894.950788816,None,894.444543981,None,0.0017006489999857877,0.5017006489999858,896.4422482030001,None,None,None,,,,,,,13,2021_Dec_30_1307,Whispered,2021.2.3,488.51899750144685,
stimuli/DW_S1_ma2-w_305ms.wav,DW_S1_ma2-w_305ms.wav,1-妈          2-麻          3-马           4-骂,2,None,,,,,,,,,0,76,76,70,,,3,0,1.0618365729999368,897.265074131,None,896.7601952869999,None,0.000447724399919025,0.500447724399919,None,None,None,None,,,,,,,13,2021_Dec_30_1307,Whispered,2021.2.3,488.51899750144685,
stimuli/DW_S2_yu3-w_305ms.wav,DW_S2_yu3-w_305ms.wav,1-迂          2-鱼          3-雨          4-玉,3,None,,,,,,,,,0,77,77,88,,,2,0,1.6864960960001554,898.8484453089999,None,898.3430633490001,None,0.0005955753999842273,0.5005955753999842,900.343691792,None,None,None,,,,,,,13,2021_Dec_30_1307,Whispered,2021.2.3,488.51899750144685,
stimuli/DW_S1_wu2-p_305ms.wav,DW_S1_wu2-p_305ms.wav,1-乌          2-无          3-五          4-物,2,None,,,,,,,,,0,78,78,103,,,2,1,1.7207014489999892,901.054228519,None,900.54961434,None,0.001762994999808143,0.5017629949998081,902.547343972,None,None,None,,,,,,,13,2021_Dec_30_1307,Whispered,2021.2.3,488.51899750144685,
stimuli/SC_S2_yu1-w_305ms.wav,SC_S2_yu1-w_305ms.wav,1-迂          2-鱼          3-雨          4-玉,1,None,,,,,,,,,0,79,79,95,,,4,0,1.8322765220000292,903.294639992,None,902.789453365,None,0.0016474109997943742,0.5016474109997944,904.7872008159999,None,None,None,,,,,,,13,2021_Dec_30_1307,Whispered,2021.2.3,488.51899750144685,
stimuli/DW_S2_wu1-w_192ms.wav,DW_S2_wu1-w_192ms.wav,1-乌          2-无          3-五          4-物,1,None,,,,,,,,,0,80,80,35,,,3,0,1.4320557889998327,905.6468560730001,None,905.14129053,None,0.0001469933999942441,0.5001469933999942,None,None,None,None,,,,,,,13,2021_Dec_30_1307,Whispered,2021.2.3,488.51899750144685,
stimuli/DW_S1_e1-p_305ms.wav,DW_S1_e1-p_305ms.wav,1-婀          2-鹅          3-恶（恶心）          4-饿,1,None,,,,,,,,,0,81,81,150,,,1,1,1.4065406500001245,907.600385695,None,907.095608259,None,0.0004540250001809909,0.500454025000181,None,None,None,None,,,,,,,13,2021_Dec_30_1307,Whispered,2021.2.3,488.51899750144685,
stimuli/DW_S2_yu2-p_192ms.wav,DW_S2_yu2-p_192ms.wav,1-迂          2-鱼          3-雨          4-玉,2,None,,,,,,,,,0,82,82,48,,,2,1,4.290282535000188,909.52462931,None,909.0195551359999,None,0.0008745064001232095,0.5008745064001232,911.0176101860001,None,None,None,,,,,,,13,2021_Dec_30_1307,Whispered,2021.2.3,488.51899750144685,
stimuli/SC_S2_yi4-w_305ms.wav,SC_S2_yi4-w_305ms.wav,1-衣          2-姨          3-椅          4-意,4,None,,,,,,,,,0,83,83,6,,,4,1,2.101803258000018,914.337098184,None,913.831510133,None,0.0003673999999591615,0.5003673999999592,915.834557128,None,None,None,,,,,,,13,2021_Dec_30_1307,Whispered,2021.2.3,488.51899750144685,
stimuli/SC_S2_yu3-p_192ms.wav,SC_S2_yu3-p_192ms.wav,1-迂          2-鱼          3-雨          4-玉,3,None,,,,,,,,,0,84,84,89,,,3,1,1.8868934969998463,916.960029531,None,916.454815623,None,0.0016368210001473926,0.5016368210001474,918.453996499,None,None,None,,,,,,,13,2021_Dec_30_1307,Whispered,2021.2.3,488.51899750144685,
stimuli/SC_S1_e4-w_305ms.wav,SC_S1_e4-w_305ms.wav,1-婀          2-鹅          3-恶（恶心）          4-饿,4,None,,,,,,,,,0,85,85,98,,,4,1,1.691658039999993,919.371332931,None,918.8660477299999,None,0.0016463009999370115,0.501646300999937,920.864460763,None,None,None,,,,,,,13,2021_Dec_30_1307,Whispered,2021.2.3,488.51899750144685,
stimuli/DW_S2_e3-p_192ms.wav,DW_S2_e3-p_192ms.wav,1-婀          2-鹅          3-恶（恶心）          4-饿,3,None,,,,,,,,,0,86,86,87,,,3,1,3.285092416999987,921.577824518,None,921.0728440700001,None,0.001149818799831337,0.5011498187998313,923.072933579,None,None,None,,,,,,,13,2021_Dec_30_1307,Whispered,2021.2.3,488.51899750144685,
stimuli/SC_S1_yu3-w_192ms.wav,SC_S1_yu3-w_192ms.wav,1-迂          2-鱼          3-雨          4-玉,3,None,,,,,,,,,0,87,87,137,,,4,0,1.5747779710000032,925.3841625020001,None,924.87811937,None,0.0016504540001278656,0.5016504540001279,926.878461744,None,None,None,,,,,,,13,2021_Dec_30_1307,Whispered,2021.2.3,488.51899750144685,
stimuli/SC_S1_wu3-w_305ms.wav,SC_S1_wu3-w_305ms.wav,1-乌          2-无          3-五          4-物,3,None,,,,,,,,,0,88,88,17,,,3,1,2.225290155000039,927.477624489,None,926.972827271,None,0.0013713580003695824,0.5013713580003696,928.975490513,None,None,None,,,,,,,13,2021_Dec_30_1307,Whispered,2021.2.3,488.51899750144685,
stimuli/DW_S2_ma2-w_305ms.wav,DW_S2_ma2-w_305ms.wav,1-妈          2-麻          3-马           4-骂,2,None,,,,,,,,,0,89,89,2,,,3,0,1.8749081819998992,930.2200311749999,None,929.7155251789999,None,0.0005672193999544106,0.5005672193999544,931.7134236369999,None,None,None,,,,,,,13,2021_Dec_30_1307,Whispered,2021.2.3,488.51899750144685,
stimuli/SC_S2_yi3-w_305ms.wav,SC_S2_yi3-w_305ms.wav,1-衣          2-姨          3-椅          4-意,3,None,,,,,,,,,0,90,90,154,,,4,0,1.7363510329998917,932.614570526,None,932.1097742359999,None,0.00026514799969845626,0.5002651479996985,934.109422672,None,None,None,,,,,,,13,2021_Dec_30_1307,Whispered,2021.2.3,488.51899750144685,
stimuli/DW_S1_ma3-p_305ms.wav,DW_S1_ma3-p_305ms.wav,1-妈          2-麻          3-马           4-骂,3,Y,,,,,,,,,0,91,91,114,,,3,1,1.436920113000042,934.873991499,None,934.3684616429999,None,0.0003641393998350395,0.500364139399835,None,None,None,None,,,,,,,13,2021_Dec_30_1307,Whispered,2021.2.3,488.51899750144685,
stimuli/DW_S2_ma1-w_192ms.wav,DW_S2_ma1-w_192ms.wav,1-妈          2-麻          3-马           4-骂,1,None,,,,,,,,,0,92,92,18,,,3,0,1.0830912379999518,936.8278430700001,None,936.322546639,None,0.00125382680016628,0.5012538268001663,None,None,None,None,,,,,,,13,2021_Dec_30_1307,Whispered,2021.2.3,488.51899750144685,
stimuli/DW_S2_yi2-w_192ms.wav,DW_S2_yi2-w_192ms.wav,1-衣          2-姨          3-椅          4-意,2,None,,,,,,,,,0,93,93,57,,,4,0,1.5285841309998887,938.4304069010001,None,937.9256529979999,None,0.0006041429996912484,0.5006041429996912,939.9259119530001,None,None,None,,,,,,,13,2021_Dec_30_1307,Whispered,2021.2.3,488.51899750144685,
stimuli/SC_S2_ma3-p_305ms.wav,SC_S2_ma3-p_305ms.wav,1-妈          2-麻          3-马           4-骂,3,None,,,,,,,,,0,94,94,42,,,3,1,1.4338906919999772,940.477021903,None,939.972000397,None,0.000550538399920697,0.5005505383999207,None,None,None,None,,,,,,,13,2021_Dec_30_1307,Whispered,2021.2.3,488.51899750144685,
stimuli/DW_S2_ma3-p_192ms.wav,DW_S2_ma3-p_192ms.wav,1-妈          2-麻          3-马           4-骂,3,None,,,,,,,,,0,95,95,147,,,3,1,1.2434933179999916,942.427436452,None,941.9219217230001,None,0.0010877618001359224,0.5010877618001359,None,None,None,None,,,,,,,13,2021_Dec_30_1307,Whispered,2021.2.3,488.51899750144685,
stimuli/DW_S1_yi1-w_305ms.wav,DW_S1_yi1-w_305ms.wav,1-衣          2-姨          3-椅          4-意,1,None,,,,,,,,,0,96,96,155,,,4,0,1.0001870719997896,944.1907509409999,None,943.6852588630001,None,0.0008702259999608941,0.5008702259999609,None,None,None,None,,,,,,,13,2021_Dec_30_1307,Whispered,2021.2.3,488.51899750144685,
stimuli/DW_S2_wu2-p_192ms.wav,DW_S2_wu2-p_192ms.wav,1-乌          2-无          3-五          4-物,2,None,,,,,,,,,0,97,97,24,,,2,1,1.7365294390001509,945.7103925749999,None,945.204972983,None,0.0014502709998396313,0.5014502709998396,947.204134105,None,None,None,,,,,,,13,2021_Dec_30_1307,Whispered,2021.2.3,488.51899750144685,
stimuli/DW_S1_yu1-w_305ms.wav,DW_S1_yu1-w_305ms.wav,1-迂          2-鱼          3-雨          4-玉,1,None,,,,,,,,,0,98,98,100,,,4,0,3.2882903629999873,947.9666510789999,None,947.4621575150001,None,0.0012674389997755497,0.5012674389997755,949.4656478159999,None,None,None,,,,,,,13,2021_Dec_30_1307,Whispered,2021.2.3,488.51899750144685,
stimuli/DW_S1_wu2-p_192ms.wav,DW_S1_wu2-p_192ms.wav,1-乌          2-无          3-五          4-物,2,None,,,,,,,,,0,99,99,32,,,2,1,1.6727448679998815,951.774173724,None,951.2699991180001,None,0.0015691619996687223,0.5015691619996687,953.268633154,None,None,None,,,,,,,13,2021_Dec_30_1307,Whispered,2021.2.3,488.51899750144685,
stimuli/SC_S1_e3-p_192ms.wav,SC_S1_e3-p_192ms.wav,1-婀          2-鹅          3-恶（恶心）          4-饿,3,None,,,,,,,,,0,100,100,136,,,3,1,1.4203969740001412,953.970544789,None,953.466203398,None,0.00016106539987958968,0.5001610653998796,None,None,None,None,,,,,,,13,2021_Dec_30_1307,Whispered,2021.2.3,488.51899750144685,
stimuli/DW_S1_ma2-p_305ms.wav,DW_S1_ma2-p_305ms.wav,1-妈          2-麻          3-马           4-骂,2,None,,,,,,,,,0,101,101,8,,,2,1,1.502110853999966,955.912811325,None,955.4082050379999,None,4.955240001436323e-05,0.5000495524000144,957.4095274590001,None,None,None,,,,,,,13,2021_Dec_30_1307,Whispered,2021.2.3,488.51899750144685,
stimuli/DW_S1_e2-w_305ms.wav,DW_S1_e2-w_305ms.wav,1-婀          2-鹅          3-恶（恶心）          4-饿,2,None,,,,,,,,,0,102,102,128,,,2,1,1.3534321409999848,957.9335334169999,None,957.4289946810001,None,0.0006734860000960907,0.5006734860000961,None,None,None,None,,,,,,,13,2021_Dec_30_1307,Whispered,2021.2.3,488.51899750144685,
stimuli/DW_S1_yu3-p_192ms.wav,DW_S1_yu3-p_192ms.wav,1-迂          2-鱼          3-雨          4-玉,3,None,,,,,,,,,0,103,103,94,,,3,1,1.477853720999974,959.80905965,None,959.3036253429999,None,0.000578051399998003,0.500578051399998,None,None,None,None,,,,,,,13,2021_Dec_30_1307,Whispered,2021.2.3,488.51899750144685,
stimuli/DW_S2_ma1-p_305ms.wav,DW_S2_ma1-p_305ms.wav,1-妈          2-麻          3-马           4-骂,1,None,,,,,,,,,0,104,104,54,,,1,1,1.5618288069999835,961.8050973190001,None,961.3003336359999,None,0.0018541260001256887,0.5018541260001257,963.297795525,None,None,None,,,,,,,13,2021_Dec_30_1307,Whispered,2021.2.3,488.51899750144685,
stimuli/SC_S1_e4-p_192ms.wav,SC_S1_e4-p_192ms.wav,1-婀          2-鹅          3-恶（恶心）          4-饿,4,None,,,,,,,,,0,105,105,104,,,4,1,1.7774662379999882,963.8854402180001,None,963.381005441,None,0.0017188669999086414,0.5017188669999086,965.3801789349999,None,None,None,,,,,,,13,2021_Dec_30_1307,Whispered,2021.2.3,488.51899750144685,
stimuli/SC_S1_e1-p_192ms.wav,SC_S1_e1-p_192ms.wav,1-婀          2-鹅          3-恶（恶心）          4-饿,1,None,,,,,,,,,0,106,106,60,,,1,1,1.4614557960001093,966.1774429369999,None,965.6724249929999,None,0.0016183887998977298,0.5016183887998977,None,None,None,None,,,,,,,13,2021_Dec_30_1307,Whispered,2021.2.3,488.51899750144685,
stimuli/SC_S2_wu2-w_305ms.wav,SC_S2_wu2-w_305ms.wav,1-乌          2-无          3-五          4-物,2,None,,,,,,,,,0,107,107,49,,,2,1,2.1120033540000804,968.158902949,None,967.6544702570001,None,0.0015010900001470873,0.5015010900001471,969.6568349119999,None,None,None,,,,,,,13,2021_Dec_30_1307,Whispered,2021.2.3,488.51899750144685,
stimuli/SC_S2_wu3-w_192ms.wav,SC_S2_wu3-w_192ms.wav,1-乌          2-无          3-五          4-物,3,None,,,,,,,,,0,108,108,40,,,3,1,1.8907734679999066,970.7881363739999,None,970.2837430139999,None,0.0013364547999117349,0.5013364547999117,972.285713443,None,None,None,,,,,,,13,2021_Dec_30_1307,Whispered,2021.2.3,488.51899750144685,
stimuli/DW_S1_e4-w_192ms.wav,DW_S1_e4-w_192ms.wav,1-婀          2-鹅          3-恶（恶心）          4-饿,4,None,,,,,,,,,0,109,109,145,,,3,0,1.9513462039999467,973.1995670089999,None,972.6949838459999,None,0.0010815769999226177,0.5010815769999226,974.6962385349999,None,None,None,,,,,,,13,2021_Dec_30_1307,Whispered,2021.2.3,488.51899750144685,
stimuli/SC_S2_ma1-w_305ms.wav,SC_S2_ma1-w_305ms.wav,1-妈          2-麻          3-马           4-骂,1,None,,,,,,,,,0,110,110,3,,,3,0,1.8213528219998807,975.6735577830001,None,975.168234223,None,0.0004941744000461767,0.5004941744000462,977.169825888,None,None,None,,,,,,,13,2021_Dec_30_1307,Whispered,2021.2.3,488.51899750144685,
stimuli/SC_S2_e2-p_192ms.wav,SC_S2_e2-p_192ms.wav,1-婀          2-鹅          3-恶（恶心）          4-饿,2,None,,,,,,,,,0,111,111,156,,,2,1,1.677112538000074,978.0178087789999,None,977.5125791259999,None,0.001484981999738011,0.501484981999738,979.5138654240001,None,None,None,,,,,,,13,2021_Dec_30_1307,Whispered,2021.2.3,488.51899750144685,
stimuli/SC_S1_ma3-w_305ms.wav,SC_S1_ma3-w_305ms.wav,1-妈          2-麻          3-马           4-骂,3,None,,,,,,,,,0,112,112,148,,,3,1,1.405832207000003,980.217072258,None,979.7122057529999,None,0.0005495703999258694,0.5005495703999259,None,None,None,None,,,,,,,13,2021_Dec_30_1307,Whispered,2021.2.3,488.51899750144685,
stimuli/DW_S1_wu4-p_192ms.wav,DW_S1_wu4-p_192ms.wav,1-乌          2-无          3-五          4-物,4,None,,,,,,,,,0,113,113,25,,,4,1,1.5024662800001352,982.1444226560001,None,981.639565417,None,0.0003375234000486671,0.5003375234000487,983.6392263239999,None,None,None,,,,,,,13,2021_Dec_30_1307,Whispered,2021.2.3,488.51899750144685,
stimuli/SC_S1_e1-p_305ms.wav,SC_S1_e1-p_305ms.wav,1-婀          2-鹅          3-恶（恶心）          4-饿,1,None,,,,,,,,,0,114,114,53,,,1,1,1.4600965700001325,984.170815247,None,983.665793218,None,0.0017033740002716513,0.5017033740002717,None,None,None,None,,,,,,,13,2021_Dec_30_1307,Whispered,2021.2.3,488.51899750144685,
stimuli/SC_S1_yi4-p_305ms.wav,SC_S1_yi4-p_305ms.wav,1-衣          2-姨          3-椅          4-意,4,None,,,,,,,,,0,115,115,33,,,4,1,1.894493673999932,986.152419144,None,985.6476746090001,None,0.00042264100011379924,0.5004226410001138,987.650500741,None,None,None,,,,,,,13,2021_Dec_30_1307,Whispered,2021.2.3,488.51899750144685,
stimuli/SC_S1_yu2-w_305ms.wav,SC_S1_yu2-w_305ms.wav,1-迂          2-鱼          3-雨          4-玉,2,None,,,,,,,,,0,116,116,16,,,2,1,1.9420243869999467,988.5688708700001,None,988.0641067099999,None,8.230540015574661e-05,0.5000823054001557,990.0644491869999,None,None,None,,,,,,,13,2021_Dec_30_1307,Whispered,2021.2.3,488.51899750144685,
stimuli/DW_S2_yi4-p_305ms.wav,DW_S2_yi4-p_305ms.wav,1-衣          2-姨          3-椅          4-意,4,None,,,,,,,,,0,117,117,77,,,4,1,1.6317472470000212,991.031194021,None,990.527227614,None,0.0002647829999204987,0.5002647829999205,992.530044064,None,None,None,,,,,,,13,2021_Dec_30_1307,Whispered,2021.2.3,488.51899750144685,
stimuli/DW_S1_e3-w_192ms.wav,DW_S1_e3-w_192ms.wav,1-婀          2-鹅          3-恶（恶心）          4-饿,3,None,,,,,,,,,0,118,118,83,,,3,1,1.9760900709998168,993.182822675,None,992.6774715939999,None,0.0006266849998155521,0.5006266849998156,994.6783847969999,None,None,None,,,,,,,13,2021_Dec_30_1307,Whispered,2021.2.3,488.51899750144685,
stimuli/SC_S1_yi1-w_192ms.wav,SC_S1_yi1-w_192ms.wav,1-衣          2-姨          3-椅          4-意,1,None,,,,,,,,,0,119,119,93,,,4,0,1.3644435839999005,995.682508796,None,995.177393538,None,9.016340004563972e-05,0.5000901634000456,None,None,None,None,,,,,,,13,2021_Dec_30_1307,Whispered,2021.2.3,488.51899750144685,
stimuli/DW_S2_ma4-p_192ms.wav,DW_S2_ma4-p_192ms.wav,1-妈          2-麻          3-马           4-骂,4,None,,,,,,,,,0,120,120,127,,,4,1,1.3124081840001054,997.5664919320001,None,997.0620040949999,None,0.0012395250003010005,0.501239525000301,None,None,None,None,,,,,,,13,2021_Dec_30_1307,Whispered,2021.2.3,488.51899750144685,
stimuli/DW_S2_yu4-w_305ms.wav,DW_S2_yu4-w_305ms.wav,1-迂          2-鱼          3-雨          4-玉,4,None,,,,,,,,,0,121,121,66,,,4,1,1.4066742160000558,999.4002353069999,None,998.8945601689999,None,0.001477180999927441,0.5014771809999274,None,None,None,None,,,,,,,13,2021_Dec_30_1307,Whispered,2021.2.3,488.51899750144685,
stimuli/SC_S1_yu4-p_305ms.wav,SC_S1_yu4-p_305ms.wav,1-迂          2-鱼          3-雨          4-玉,4,None,,,,,,,,,0,122,122,4,,,4,1,1.346969917000024,1001.3239779740001,None,1000.8188841790001,None,0.0011589798002660245,0.501158979800266,None,None,None,None,,,,,,,13,2021_Dec_30_1307,Whispered,2021.2.3,488.51899750144685,
stimuli/SC_S1_yi3-p_192ms.wav,SC_S1_yi3-p_192ms.wav,1-衣          2-姨          3-椅          4-意,3,None,,,,,,,,,0,123,123,140,,,3,1,1.6078985199999352,1003.1910123829999,None,1002.6871630649999,None,0.000718338000069707,0.5007183380000697,1004.688473373,None,None,None,,,,,,,13,2021_Dec_30_1307,Whispered,2021.2.3,488.51899750144685,
stimuli/DW_S2_yu2-p_305ms.wav,DW_S2_yu2-p_305ms.wav,1-迂          2-鱼          3-雨          4-玉,2,None,,,,,,,,,0,124,124,38,,,2,1,1.8931010309997873,1005.32180635,None,1004.8170069619999,None,0.0005508113999894704,0.5005508113999895,1006.816335955,None,None,None,,,,,,,13,2021_Dec_30_1307,Whispered,2021.2.3,488.51899750144685,
stimuli/DW_S2_e1-w_192ms.wav,DW_S2_e1-w_192ms.wav,1-婀          2-鹅          3-恶（恶心）          4-饿,1,None,,,,,,,,,0,125,125,7,,,3,0,1.6299596629999087,1007.7369633269999,None,1007.232128842,None,0.0016067530000327679,0.5016067530000328,1009.231783948,None,None,None,,,,,,,13,2021_Dec_30_1307,Whispered,2021.2.3,488.51899750144685,
stimuli/SC_S1_yi1-p_305ms.wav,SC_S1_yi1-p_305ms.wav,1-衣          2-姨          3-椅          4-意,1,None,,,,,,,,,0,126,126,26,,,1,1,1.4926209409998137,1009.890277994,None,1009.3855629579999,None,0.0011959680000472872,0.5011959680000473,1011.3893938319999,None,None,None,,,,,,,13,2021_Dec_30_1307,Whispered,2021.2.3,488.51899750144685,
stimuli/DW_S1_yi4-w_192ms.wav,DW_S1_yi4-w_192ms.wav,1-衣          2-姨          3-椅          4-意,4,None,,,,,,,,,0,127,127,23,,,3,0,1.2251607860000604,1011.9017653750001,None,1011.3970472489999,None,0.00043044719996032654,0.5004304471999603,None,None,None,None,,,,,,,13,2021_Dec_30_1307,Whispered,2021.2.3,488.51899750144685,
stimuli/DW_S1_ma4-p_305ms.wav,DW_S1_ma4-p_305ms.wav,1-妈          2-麻          3-马           4-骂,4,None,,,,,,,,,0,128,128,134,,,4,1,1.5689664720000565,1013.645993519,None,1013.1407158549999,None,0.0006969080002363626,0.5006969080002364,1015.1410227949999,None,None,None,,,,,,,13,2021_Dec_30_1307,Whispered,2021.2.3,488.51899750144685,
stimuli/DW_S1_yu4-w_305ms.wav,DW_S1_yu4-w_305ms.wav,1-迂          2-鱼          3-雨          4-玉,4,None,,,,,,,,,0,129,129,151,,,4,1,1.253664315999913,1015.737233082,None,1015.231921621,None,0.000552375400047822,0.5005523754000478,None,None,None,None,,,,,,,13,2021_Dec_30_1307,Whispered,2021.2.3,488.51899750144685,
stimuli/SC_S2_ma3-w_305ms.wav,SC_S2_ma3-w_305ms.wav,1-妈          2-麻          3-马           4-骂,3,None,,,,,,,,,0,130,130,113,,,3,1,1.8069149609998476,1017.511998052,None,1017.006570511,None,0.0016360419999728038,0.5016360419999728,1019.0064345289999,None,None,None,,,,,,,13,2021_Dec_30_1307,Whispered,2021.2.3,488.51899750144685,
stimuli/SC_S2_yu1-p_192ms.wav,SC_S2_yu1-p_192ms.wav,1-迂          2-鱼          3-雨          4-玉,1,None,,,,,,,,,0,131,131,118,,,1,1,2.5187486730001183,1019.8401874499999,None,1019.3349578670001,None,0.0006910093998158118,0.5006910093998158,1021.3371340489999,None,None,None,,,,,,,13,2021_Dec_30_1307,Whispered,2021.2.3,488.51899750144685,
stimuli/DW_S1_yi2-p_305ms.wav,DW_S1_yi2-p_305ms.wav,1-衣          2-姨          3-椅          4-意,2,None,,,,,,,,,0,132,132,85,,,2,1,1.6636466009999822,1022.8792703789999,None,1022.3751869209999,None,0.0006494070000826468,0.5006494070000826,1024.373198445,None,None,None,,,,,,,13,2021_Dec_30_1307,Whispered,2021.2.3,488.51899750144685,
stimuli/SC_S2_ma4-w_192ms.wav,SC_S2_ma4-w_192ms.wav,1-妈          2-麻          3-马           4-骂,4,None,,,,,,,,,0,133,133,126,,,3,0,3.7904746760000307,1025.064424529,None,1024.5588500529998,None,0.00188516100047309,0.5018851610004731,1026.5563321509999,None,None,None,,,,,,,13,2021_Dec_30_1307,Whispered,2021.2.3,488.51899750144685,
stimuli/DW_S1_wu2-w_305ms.wav,DW_S1_wu2-w_305ms.wav,1-乌          2-无          3-五          4-物,2,None,,,,,,,,,0,134,134,78,,,2,1,2.4594695729999785,1029.379433042,None,1028.874067358,None,0.000512878399604233,0.5005128783996042,1030.874786384,None,None,None,,,,,,,13,2021_Dec_30_1307,Whispered,2021.2.3,488.51899750144685,
stimuli/DW_S2_wu4-p_192ms.wav,DW_S2_wu4-p_192ms.wav,1-乌          2-无          3-五          4-物,4,None,,,,,,,,,0,135,135,12,,,4,1,1.6752671450001344,1032.355649017,None,1031.8508006789998,None,0.001101011799846674,0.5011010117998467,1033.8514878199999,None,None,None,,,,,,,13,2021_Dec_30_1307,Whispered,2021.2.3,488.51899750144685,
stimuli/SC_S2_ma1-p_192ms.wav,SC_S2_ma1-p_192ms.wav,1-妈          2-麻          3-马           4-骂,1,None,,,,,,,,,0,136,136,157,,,1,1,1.5112284000001637,1034.5517201460002,None,1034.0466371500002,None,0.001457876000131364,0.5014578760001314,1036.044751893,None,None,None,,,,,,,13,2021_Dec_30_1307,Whispered,2021.2.3,488.51899750144685,
stimuli/DW_S2_wu1-p_305ms.wav,DW_S2_wu1-p_305ms.wav,1-乌          2-无          3-五          4-物,1,None,,,,,,,,,0,137,137,27,,,1,1,1.7298295359998974,1036.581084942,None,1036.076526035,None,0.0010719800002334523,0.5010719800002335,1038.0767465600002,None,None,None,,,,,,,13,2021_Dec_30_1307,Whispered,2021.2.3,488.51899750144685,
stimuli/DW_S2_yu2-w_192ms.wav,DW_S2_yu2-w_192ms.wav,1-迂          2-鱼          3-雨          4-玉,2,None,,,,,,,,,0,138,138,52,,,2,1,1.575613120000071,1038.831306513,None,1038.3267408020001,None,0.001519503999816152,0.5015195039998162,1040.3265782499998,None,None,None,,,,,,,13,2021_Dec_30_1307,Whispered,2021.2.3,488.51899750144685,
stimuli/SC_S2_wu1-p_192ms.wav,SC_S2_wu1-p_192ms.wav,1-乌          2-无          3-五          4-物,1,None,,,,,,,,,0,139,139,11,,,1,1,1.5874297539999134,1040.931503539,None,1040.426526141,None,0.0008599823997883504,0.5008599823997884,1042.425969766,None,None,None,,,,,,,13,2021_Dec_30_1307,Whispered,2021.2.3,488.51899750144685,
stimuli/SC_S2_ma2-w_192ms.wav,SC_S2_ma2-w_192ms.wav,1-妈          2-麻          3-马           4-骂,2,None,,,,,,,,,0,140,140,65,,,3,0,2.119780306999928,1043.0391559999998,None,1042.533426391,None,0.0013710050000099727,0.50137100500001,1044.5383978660002,None,None,None,,,,,,,13,2021_Dec_30_1307,Whispered,2021.2.3,488.51899750144685,
stimuli/DW_S2_wu4-w_192ms.wav,DW_S2_wu4-w_192ms.wav,1-乌          2-无          3-五          4-物,4,None,,,,,,,,,0,141,141,115,,,4,1,1.4814800649999142,1045.677427084,None,1045.1729744989998,None,0.0015305830002034782,0.5015305830002035,None,None,None,None,,,,,,,13,2021_Dec_30_1307,Whispered,2021.2.3,488.51899750144685,
